# timestamp(s) wx wy wz ax ay az
1430532999.710278034 -3.638713340 -0.232528159 0.012265090 -10.676169205 -4.129799211 -7.423451123
1430532999.720278025 -4.408215285 -0.144402117 -0.038984055 -10.707768615 -3.564597778 -6.973779994
1430532999.730278254 -4.866474019 -0.090099237 -0.068903879 -10.643749793 -2.856142246 -6.667130833
1430532999.740278244 -5.066616866 -0.054036051 -0.092797585 -10.559260498 -2.246539382 -6.437405506
1430532999.750278234 -5.058157945 -0.037168609 -0.100672337 -10.512156241 -1.527792615 -6.221072657
1430532999.760277987 -4.894083254 -0.041994948 -0.109135275 -10.422868284 -0.845054934 -6.010461368
1430532999.770278215 -4.626145242 -0.049125246 -0.102314687 -10.386478294 -0.116226766 -5.848968397
1430532999.780278206 -4.302464974 -0.067528001 -0.099769295 -10.272346842 0.689262000 -5.763398771
1430532999.790278196 -3.984537421 -0.081729584 -0.095906958 -10.189298346 1.447514078 -5.638953630
1430532999.800277948 -3.709689114 -0.094532609 -0.093504330 -10.084736408 2.297060559 -5.534261490
1430532999.810278177 -3.541070694 -0.101601877 -0.085345661 -9.954011905 3.269706851 -5.507394184
1430532999.820278168 -3.510028906 -0.092298141 -0.071499956 -9.815467031 4.101161850 -5.323003351
1430532999.830278158 -3.608715581 -0.069608802 -0.056935391 -9.659919991 4.860172770 -5.065902998
1430532999.840277910 -3.804785909 -0.041125165 -0.043536183 -9.484376101 5.515110007 -4.615026704
1430532999.850278139 -4.065789804 -0.003000216 -0.024516945 -9.364723758 5.946491965 -3.959033549
1430532999.860278368 -4.369872398 0.034875591 -0.007775189 -9.180861215 6.216045768 -3.244064807
1430532999.870278120 -4.684790666 0.075836251 0.012214335 -8.986884019 6.361569679 -2.361918587
1430532999.880278111 -4.979643449 0.111067952 0.024670150 -8.768727350 6.231368776 -1.374274247
1430532999.890278101 -5.232024903 0.148439946 0.036766428 -8.644488380 5.919049134 -0.340067161
1430532999.900278330 -5.408620686 0.172207013 0.043297310 -8.390974042 5.310910503 0.755050056
1430532999.910278082 -5.483864652 0.192731260 0.038953782 -8.251233046 4.464575549 1.871808817
1430532999.920278072 -5.429847568 0.200963202 0.028719272 -8.047780442 3.461999138 2.853227795
1430532999.930278063 -5.270608974 0.201217332 0.011034465 -7.897736391 2.589824258 3.683413909
1430532999.940278292 -5.035349180 0.191086514 -0.018249631 -7.807079972 1.737092401 4.323150267
1430532999.950278044 -4.734783991 0.175850078 -0.048134740 -7.827334049 1.084197141 4.935423498
1430532999.960278034 -4.412405643 0.156521051 -0.082052353 -7.886278425 0.504671405 5.398989931
1430532999.970278263 -4.082881609 0.136357195 -0.115817267 -8.011549698 0.068654125 5.769293085
1430532999.980278254 -3.779956733 0.113824720 -0.148441260 -8.132029441 -0.185245273 6.159813530
1430532999.990278244 -3.530902772 0.092440724 -0.169586208 -8.358582006 -0.319204331 6.463242612
1430533000.000277996 -3.358844827 0.069918042 -0.193495762 -8.676561464 -0.313032429 6.738906733
1430533000.010278225 -3.289282820 0.047343562 -0.201385660 -8.987965182 -0.140246522 7.074089494
1430533000.020278215 -3.341220011 0.027319049 -0.199951989 -9.272258071 0.124821460 7.293560105
1430533000.030278206 -3.505332489 0.011954119 -0.188099382 -9.559832555 0.338152837 7.241560206
1430533000.040277958 -3.748498415 -0.005590396 -0.169821147 -9.764069130 0.532717951 6.995623985
1430533000.050278187 -4.054522796 -0.024603241 -0.142486816 -9.920003157 0.757995432 6.534437614
1430533000.060278177 -4.386034295 -0.041435059 -0.117876838 -9.910028532 1.031045930 5.914528241
1430533000.070278168 -4.728698055 -0.053423785 -0.091913976 -9.934848002 1.362866548 4.978143451
1430533000.080277920 -5.050886149 -0.068620709 -0.069435619 -9.819412283 1.797172670 3.905228084
1430533000.090278149 -5.330987430 -0.081106179 -0.055301329 -9.636009889 2.442555863 2.576545216
1430533000.100278378 -5.535404058 -0.086047105 -0.044499121 -9.414364068 3.227490181 1.135430272
1430533000.110278130 -5.645836004 -0.093082054 -0.049351289 -9.123781615 4.277457365 -0.393729178
1430533000.120278120 -5.640112532 -0.090751371 -0.067146947 -8.856802826 5.472501620 -1.880726488
1430533000.130278111 -5.535472122 -0.084059251 -0.092128714 -8.585576139 6.644643902 -2.850595892
1430533000.140278339 -5.343602684 -0.073216253 -0.121071738 -8.426831078 7.612518571 -3.488266041
1430533000.150278091 -5.107937293 -0.059555400 -0.161565922 -8.292452021 8.368321654 -3.741177337
1430533000.160278082 -4.829789939 -0.041249126 -0.200451606 -8.350063398 8.887096553 -3.688902119
1430533000.170278072 -4.554283141 -0.016894208 -0.231948400 -8.353611785 9.078569080 -3.366932570
1430533000.180278301 -4.288501791 0.001503676 -0.264326532 -8.493473936 8.933677169 -2.870412338
1430533000.190278053 -4.059369908 0.019823326 -0.283165974 -8.680820236 8.450244984 -2.159440946
1430533000.200278044 -3.895162826 0.038377884 -0.292696330 -8.922800670 7.547557690 -1.305813732
1430533000.210278034 -3.824540996 0.046706401 -0.286491581 -9.181515579 6.217200754 -0.325845634
1430533000.220278263 -3.853779432 0.051612173 -0.266399997 -9.485683728 4.739636657 0.596728789
1430533000.230278254 -3.971745858 0.046767146 -0.233744493 -9.758774603 3.353564974 1.315795783
1430533000.240278006 -4.163036801 0.035168158 -0.187556477 -9.949188861 2.076179941 1.960789364
1430533000.250278234 -4.402741289 0.019366156 -0.139000326 -10.094253959 0.947590931 2.378369272
1430533000.260278225 -4.664258052 0.004133982 -0.090285343 -10.231633720 -0.051035499 2.709265369
1430533000.270278215 -4.930836615 -0.018869269 -0.042372202 -10.248178211 -0.842715260 2.932544871
1430533000.280277967 -5.172624410 -0.030671945 -0.000113410 -10.268630480 -1.486761590 3.004531315
1430533000.290278196 -5.374118274 -0.048698939 0.029506862 -10.249547700 -2.034099790 3.016723753
1430533000.300278187 -5.504116469 -0.055129470 0.051185616 -10.233088314 -2.314561075 3.016360897
1430533000.310278177 -5.546071094 -0.052288963 0.053487606 -10.056576418 -2.473921102 2.971788534
1430533000.320277929 -5.479804191 -0.037061377 0.035292112 -9.925215445 -2.469461445 2.894438796
1430533000.330278158 -5.320244828 -0.009496069 0.002542409 -9.755426278 -2.482190932 2.840873369
1430533000.340278387 -5.098693560 0.026009167 -0.039331719 -9.627217685 -2.483519199 2.730545884
1430533000.350278139 -4.829082028 0.063880632 -0.091498630 -9.490021596 -2.441906649 2.624196398
1430533000.360278130 -4.552365183 0.108279746 -0.143534842 -9.359145977 -2.375304046 2.482463940
1430533000.370278120 -4.279375123 0.148595590 -0.192656369 -9.259706213 -2.372369056 2.324850956
1430533000.380278349 -4.048839710 0.179868459 -0.235290759 -9.104957404 -2.242777800 2.112039831
1430533000.390278101 -3.885834020 0.202147949 -0.268356804 -8.980287851 -2.138261164 1.938099145
1430533000.400278091 -3.813495323 0.212277205 -0.280916415 -8.850497901 -1.984310505 1.696876859
1430533000.410278082 -3.857611520 0.197745579 -0.278028060 -8.747757561 -1.796918886 1.515818674
1430533000.420278311 -4.040366636 0.157761724 -0.254721977 -8.593997246 -1.607003871 1.246052618
1430533000.430278063 -4.347826681 0.098198175 -0.221364316 -8.559181276 -1.476508492 1.153329086
1430533000.440278053 -4.753642579 0.020621997 -0.172317711 -8.528088614 -1.368786647 1.069760274
1430533000.450278044 -5.232929328 -0.058667465 -0.119075167 -8.542321048 -1.329879044 1.064499630
1430533000.460278273 -5.752035084 -0.144594203 -0.069598734 -8.532844178 -1.339676922 1.112966058
1430533000.470278263 -6.284168868 -0.219551999 -0.023116611 -8.648292938 -1.531114954 1.149197295
1430533000.480278015 -6.810398460 -0.286333094 0.009776860 -8.747512186 -1.707451545 1.274414749
1430533000.490278244 -7.293331283 -0.331206869 0.019978129 -8.939158550 -1.973767416 1.331316876
1430533000.500278234 -7.714745954 -0.347958288 0.010743826 -9.129244977 -2.337911623 1.372347511
1430533000.510278225 -8.039482478 -0.322012694 -0.022812210 -9.370267221 -2.790649457 1.438565488
1430533000.520277977 -8.247759958 -0.249626581 -0.086619536 -9.553714447 -3.357422011 1.343899356
1430533000.530278206 -8.331514339 -0.137589599 -0.170305354 -9.775966661 -3.822472891 1.100730581
1430533000.540278196 -8.303378152 -0.001069178 -0.266488416 -9.914020536 -4.189436777 0.733899087
1430533000.550278187 -8.152072860 0.154629472 -0.366126054 -10.007077469 -4.521579352 0.241123403
1430533000.560277939 -7.897010187 0.310303975 -0.453269940 -10.098213363 -4.659451281 -0.411213803
1430533000.570278168 -7.526002542 0.457740871 -0.521318402 -10.065130703 -4.733710213 -1.037063956
1430533000.580278158 -7.061965658 0.577065552 -0.559361599 -9.993636736 -4.601425224 -1.676694870
1430533000.590278149 -6.496022879 0.661093318 -0.564636898 -9.850550099 -4.343590175 -2.451202782
1430533000.600277901 -5.839182840 0.689913125 -0.520972872 -9.658391520 -3.946696748 -3.143773567
1430533000.610278130 -5.091289317 0.644123546 -0.445554471 -9.437046035 -3.406068194 -3.764490626
1430533000.620278358 -4.262142322 0.515284605 -0.335032195 -9.240279055 -2.747574016 -4.324827007
1430533000.630278111 -3.380141019 0.314223345 -0.196156108 -9.013738610 -2.194596203 -4.591822754
1430533000.640278101 -2.488157039 0.056900606 -0.039269317 -8.874546237 -1.733144164 -4.728955867
1430533000.650278091 -1.617880241 -0.234884318 0.117442734 -8.784250263 -1.415723197 -4.615525770
1430533000.660278320 -0.823588996 -0.541357909 0.270469160 -8.717056896 -1.292748308 -4.356099920
1430533000.670278072 -0.135276534 -0.839141830 0.412938834 -8.691885558 -1.196689734 -3.907382754
1430533000.680278063 0.399519289 -1.123233078 0.531591882 -8.663511938 -1.290085988 -3.319596563
1430533000.690278053 0.744825590 -1.354999665 0.627259828 -8.689537822 -1.465238523 -2.561969679
1430533000.700278282 0.850245683 -1.528266128 0.686976498 -8.695178267 -1.700621269 -1.681744626
1430533000.710278034 0.683571052 -1.612592894 0.708743477 -8.738584581 -2.048174508 -0.626543106
1430533000.720278025 0.199093638 -1.596194879 0.687078257 -8.746975535 -2.435414961 0.428047718
1430533000.730278254 -0.551482057 -1.482100059 0.638663821 -8.778693706 -2.738292172 1.299632217
1430533000.740278244 -1.519735625 -1.290257061 0.551616578 -8.802713091 -3.002512586 1.888599529
1430533000.750278234 -2.635804177 -1.027582127 0.452670846 -8.825738526 -3.223384740 2.203184120
1430533000.760277987 -3.837550351 -0.719146865 0.340316025 -8.873361096 -3.460997083 2.197783003
1430533000.770278215 -5.056237801 -0.373111556 0.230557175 -8.953852680 -3.639178739 1.863625133
1430533000.780278206 -6.229891011 -0.016562034 0.138259032 -9.078598853 -3.702713536 1.316195765
1430533000.790278196 -7.298021962 0.331228243 0.067156165 -9.213534955 -3.611890329 0.439809101
1430533000.800277948 -8.189963251 0.650847770 0.020743785 -9.370378326 -3.251121901 -0.682621642
1430533000.810278177 -8.850117900 0.904106733 0.001698853 -9.519045075 -2.660298106 -1.990821317
1430533000.820278168 -9.225033675 1.086240891 0.006600412 -9.684558232 -1.711681594 -3.249426518
1430533000.830278158 -9.312983524 1.185147184 0.018461963 -9.733220898 -0.665891060 -4.223997634
1430533000.840277910 -9.171588287 1.213550078 0.039719967 -9.749618495 0.353469162 -4.878402021
1430533000.850278139 -8.840073447 1.180666056 0.059466707 -9.763500434 1.335900998 -5.235567930
1430533000.860278368 -8.360419504 1.099493343 0.073198846 -9.715813104 2.154998244 -5.304056032
1430533000.870278120 -7.781835320 0.984718140 0.081146763 -9.599764305 2.824896708 -5.216741094
1430533000.880278111 -7.145512845 0.843821248 0.079645107 -9.517259552 3.336073650 -4.876227167
1430533000.890278101 -6.500999367 0.688363956 0.064491106 -9.389151105 3.439514096 -4.436333417
1430533000.900278330 -5.888890181 0.534112130 0.043426433 -9.237067468 3.432551115 -3.949339144
1430533000.910278082 -5.353343871 0.382981609 0.014601673 -9.138230923 3.051115827 -3.339199402
1430533000.920278072 -4.942482367 0.253413689 -0.015733238 -9.015009548 2.519526193 -2.836747577
1430533000.930278063 -4.654158323 0.139865275 -0.050330448 -8.886808447 2.030068917 -2.479834133
1430533000.940278292 -4.484868019 0.043481209 -0.081993606 -8.803727508 1.692629635 -2.264290969
1430533000.950278044 -4.421877467 -0.029837456 -0.111427607 -8.783125630 1.466477785 -2.175796241
1430533000.960278034 -4.450421385 -0.094194431 -0.134642454 -8.793282148 1.415341558 -2.196429307
1430533000.970278263 -4.562918070 -0.137139432 -0.156338106 -8.845191734 1.478512339 -2.312509467
1430533000.980278254 -4.745363355 -0.164298983 -0.179173501 -8.844729647 1.730729328 -2.511806031
1430533000.990278244 -4.988840401 -0.176235792 -0.189995642 -8.920417379 2.194651196 -2.730698224
1430533001.000277996 -5.273412659 -0.175089568 -0.194744356 -9.084098575 2.826275405 -2.968572868
1430533001.010278225 -5.597608801 -0.160544473 -0.195590964 -9.246467251 3.672252616 -3.201196522
1430533001.020278215 -5.946654973 -0.129538016 -0.194778169 -9.416851138 4.714546297 -3.316875024
1430533001.030278206 -6.297464644 -0.086032472 -0.184158420 -9.575472249 5.513565137 -3.356491898
1430533001.040277958 -6.621772084 -0.039349317 -0.173884456 -9.676769818 6.173566309 -3.158673554
1430533001.050278187 -6.899975297 0.017342585 -0.154296619 -9.732935876 6.648951582 -2.891285854
1430533001.060278177 -7.100280111 0.068672472 -0.133323310 -9.711170506 6.867101340 -2.545743234
1430533001.070278168 -7.199548827 0.116567702 -0.107625908 -9.634062234 6.871355798 -2.217737933
1430533001.080277920 -7.171763730 0.157347320 -0.086783199 -9.549883028 6.707158324 -1.942346591
1430533001.090278149 -6.994602915 0.183518511 -0.059896200 -9.394642772 6.227708718 -1.690375336
1430533001.100278378 -6.636076378 0.193796978 -0.033013305 -9.223810497 5.669181378 -1.612411891
1430533001.110278130 -6.071931194 0.182441411 -0.011606935 -8.975167159 4.843158620 -1.742862721
1430533001.120278120 -5.277345602 0.150238884 0.002303232 -8.721233700 3.971083963 -1.981390410
1430533001.130278111 -4.273428906 0.100194734 0.004470350 -8.494916355 3.268234193 -2.379454964
1430533001.140278339 -3.083951707 0.030527587 0.005677947 -8.315666448 2.692997028 -2.632313906
1430533001.150278091 -1.743953584 -0.045241596 -0.005414329 -8.232679745 2.292352924 -2.972619262
1430533001.160278082 -0.299234771 -0.129355702 -0.017413526 -8.234282684 1.994003166 -3.253072926
1430533001.170278072 1.226766495 -0.212961325 -0.033825413 -8.311492378 1.797995430 -3.458617483
1430533001.180278301 2.794917305 -0.295907519 -0.055498527 -8.403977277 1.717967676 -3.573001762
1430533001.190278053 4.367310036 -0.376696749 -0.075252974 -8.598699975 1.718654192 -3.632873292
1430533001.200278044 5.912723639 -0.445533801 -0.094298899 -8.920403672 1.804399952 -3.658746751
1430533001.210278034 7.398974245 -0.507388888 -0.105648873 -9.200663537 2.001858060 -3.645523970
1430533001.220278263 8.783785110 -0.552638054 -0.109309129 -9.589608614 2.280311701 -3.639497481
1430533001.230278254 10.061836349 -0.587610504 -0.110817387 -9.903084062 2.412771195 -3.743217768
1430533001.240278006 11.219013027 -0.603411158 -0.103396857 -10.116832098 2.370049951 -3.963527878
1430533001.250278234 12.252528548 -0.610459569 -0.095146655 -10.271041628 2.131225242 -4.199098437
1430533001.260278225 13.162133917 -0.600822820 -0.079103601 -10.317016154 1.709142389 -4.383660949
1430533001.270278215 13.944905119 -0.583577110 -0.060576591 -10.310894181 1.157523964 -4.558859673
1430533001.280277967 14.592861746 -0.557387042 -0.052259896 -10.215102007 0.444442613 -4.543440433
1430533001.290278196 15.099692559 -0.524595371 -0.043041294 -9.982922564 -0.387155351 -4.397524603
1430533001.300278187 15.462008222 -0.486139115 -0.044188726 -9.722572710 -1.271064209 -4.071316875
1430533001.310278177 15.681416273 -0.445920310 -0.049949675 -9.344834584 -2.092516388 -3.396827827
1430533001.320277929 15.745601376 -0.408683556 -0.057858324 -8.942975335 -2.816627537 -2.572048634
1430533001.330278158 15.672494273 -0.374209214 -0.073370114 -8.528528474 -3.218396226 -1.690275577
1430533001.340278387 15.493077664 -0.343689112 -0.091114126 -8.198770100 -3.397504035 -0.824782331
1430533001.350278139 15.237327518 -0.310497397 -0.106384581 -7.969469278 -3.324030450 -0.119074421
1430533001.360278130 14.923471272 -0.287633378 -0.125131214 -7.789791571 -3.197703323 0.391869541
1430533001.370278120 14.586756943 -0.263452013 -0.140480676 -7.738455545 -2.909350208 0.760142319
1430533001.380278349 14.257375604 -0.242984336 -0.159109511 -7.687800383 -2.689185856 0.876394068
1430533001.390278101 13.956790791 -0.221840829 -0.178951028 -7.702462063 -2.498773068 0.833770251
1430533001.400278091 13.713256959 -0.208948701 -0.195055653 -7.849043987 -2.416095012 0.692535375
1430533001.410278082 13.555115090 -0.196660988 -0.221312581 -8.066234717 -2.511867138 0.430301937
1430533001.420278311 13.508311791 -0.186194117 -0.239526476 -8.356997233 -2.803193701 0.153356171
1430533001.430278063 13.556840811 -0.181862209 -0.266846969 -8.650171700 -3.057453517 -0.005906191
1430533001.440278053 13.640087874 -0.178379357 -0.293424135 -8.884479352 -3.373401747 0.068487656
1430533001.450278044 13.712542087 -0.177837541 -0.313227311 -9.073217131 -3.476780328 0.200929010
1430533001.460278273 13.713172677 -0.182297819 -0.335423116 -9.326698666 -3.518898698 0.495491214
1430533001.470278263 13.586249922 -0.183845926 -0.350576681 -9.511369687 -3.433463555 0.787147269
1430533001.480278015 13.283485928 -0.187707520 -0.361262148 -9.690503756 -3.116431215 1.019448429
1430533001.490278244 12.739213702 -0.191960073 -0.366585523 -9.927240358 -2.732241810 1.163881679
1430533001.500278234 11.908304899 -0.192434404 -0.366064753 -10.074972050 -2.224760885 1.155537991
1430533001.510278225 10.737811323 -0.198567385 -0.355111735 -10.270945424 -1.670672483 1.019828206
1430533001.520277977 9.169799166 -0.200826938 -0.331094306 -10.377612153 -1.086552482 0.661243880
1430533001.530278206 7.235279626 -0.202504286 -0.302163939 -10.501422856 -0.682702225 0.235897487
1430533001.540278196 5.034488007 -0.190507204 -0.259778071 -10.630124131 -0.416760499 -0.181403061
1430533001.550278187 2.653048670 -0.183318460 -0.218024391 -10.651338525 -0.304249077 -0.572205264
1430533001.560277939 0.189108896 -0.172293937 -0.170529578 -10.715629938 -0.273071948 -0.884184063
1430533001.570278168 -2.258576780 -0.164161125 -0.116273896 -10.726753638 -0.289100924 -1.129431788
1430533001.580278158 -4.597617010 -0.150136408 -0.063005912 -10.724739419 -0.354569374 -1.304794554
1430533001.590278149 -6.728768303 -0.134517327 -0.013369934 -10.639565230 -0.462485666 -1.443804248
1430533001.600277901 -8.563333547 -0.127842767 0.027689519 -10.539615378 -0.634809897 -1.540982284
1430533001.610278130 -10.005123048 -0.117237019 0.064320587 -10.405022965 -0.910114393 -1.649719941
1430533001.620278358 -10.955335694 -0.111343215 0.086605350 -10.238221110 -1.190817528 -1.774569670
1430533001.630278111 -11.418574224 -0.102495383 0.086655776 -10.035468322 -1.366904536 -1.897209838
1430533001.640278101 -11.460281653 -0.094780921 0.076903499 -9.907945417 -1.489612669 -1.964211314
1430533001.650278091 -11.150107669 -0.088428566 0.052714881 -9.699704212 -1.550112833 -2.077072789
1430533001.660278320 -10.566564873 -0.076122702 0.022997173 -9.523692289 -1.666876518 -2.039023344
1430533001.670278072 -9.771822943 -0.061214249 -0.012251949 -9.339841411 -1.775684442 -1.959704128
1430533001.680278063 -8.846777939 -0.048489809 -0.050739467 -9.137318247 -1.911114232 -1.799995310
1430533001.690278053 -7.859177466 -0.029688789 -0.085125326 -8.922213054 -2.164678721 -1.625027487
1430533001.700278282 -6.877441449 -0.008096280 -0.114755405 -8.723997761 -2.447276478 -1.355652645
1430533001.710278034 -5.975727475 0.012329073 -0.136587531 -8.483062916 -2.826631455 -0.944252963
1430533001.720278025 -5.228303508 0.031930248 -0.144516766 -8.296640731 -3.325015766 -0.509704856
1430533001.730278254 -4.655365250 0.046343468 -0.149763361 -8.137783619 -3.753904985 -0.223781940
1430533001.740278244 -4.244889179 0.058186925 -0.137690172 -8.008269763 -4.180515470 -0.011063788
1430533001.750278234 -3.972359372 0.060714212 -0.127078649 -7.950912277 -4.497386453 0.096183685
1430533001.760277987 -3.829313487 0.062288865 -0.104313388 -7.900448944 -4.791955959 0.121386169
1430533001.770278215 -3.791955479 0.060755357 -0.086690323 -7.974809558 -4.986661437 -0.000456553
1430533001.780278206 -3.843109640 0.054328223 -0.070233661 -8.122708341 -5.097947377 -0.142038676
1430533001.790278196 -3.971396228 0.048250754 -0.050408698 -8.299600611 -5.100161703 -0.417050255
1430533001.800277948 -4.155835202 0.042644549 -0.038555732 -8.490642315 -4.974348031 -0.651895506
1430533001.810278177 -4.376410029 0.033973438 -0.028826526 -8.771435760 -4.767160878 -1.070800960
1430533001.820278168 -4.620375636 0.036409203 -0.021465268 -9.068951183 -4.451257668 -1.482584551
1430533001.830278158 -4.871814198 0.037980063 -0.021120992 -9.347334174 -4.150413071 -1.786788364
1430533001.840277910 -5.122859547 0.041785220 -0.021414090 -9.484397947 -3.872363653 -2.061110489
1430533001.850278139 -5.364498956 0.048787157 -0.030091438 -9.630698845 -3.732500417 -2.215588207
1430533001.860278368 -5.592746739 0.056830822 -0.034711721 -9.635161339 -3.601861118 -2.372140335
1430533001.870278120 -5.789016614 0.063882084 -0.048160407 -9.655284321 -3.596511837 -2.496222739
1430533001.880278111 -5.955102060 0.072824114 -0.057655713 -9.560848930 -3.718572999 -2.560197758
1430533001.890278101 -6.074514984 0.079562217 -0.069076507 -9.420930119 -3.831078013 -2.615501612
1430533001.900278330 -6.144841290 0.082697154 -0.076237008 -9.198741849 -4.113108295 -2.657179147
1430533001.910278082 -6.157667604 0.083917096 -0.081974897 -8.848909607 -4.492043521 -2.789306543
1430533001.920278072 -6.095474819 0.080012737 -0.084212823 -8.470616105 -4.933366400 -2.912804290
1430533001.930278063 -5.972858777 0.071130596 -0.089748183 -8.187753980 -5.216557669 -3.129981691
1430533001.940278292 -5.798292974 0.056050071 -0.091445941 -8.011153626 -5.300295477 -3.476593002
1430533001.950278044 -5.593569846 0.039473342 -0.090598648 -7.829075181 -5.219194516 -3.769109973
1430533001.960278034 -5.362735991 0.018988838 -0.087722914 -7.800833964 -4.881786528 -4.092558450
1430533001.970278263 -5.133444693 0.002077158 -0.089187084 -7.817178238 -4.417095680 -4.391137767
1430533001.980278254 -4.914450681 -0.018339811 -0.087259496 -7.979477856 -3.707235592 -4.595967627
1430533001.990278244 -4.720079381 -0.033507794 -0.089046486 -8.183815223 -2.821629089 -4.676784060
1430533002.000277996 -4.573211095 -0.050128549 -0.085983331 -8.437040767 -1.741677109 -4.703744187
1430533002.010278225 -4.481106894 -0.065824482 -0.088989542 -8.859089332 -0.466541868 -4.580462523
1430533002.020278215 -4.469078387 -0.070737581 -0.089183093 -9.247099091 0.885076845 -4.304620556
1430533002.030278206 -4.529001999 -0.071790467 -0.089990134 -9.651504035 2.025535012 -3.914915122
1430533002.040277958 -4.646013938 -0.067413734 -0.090536058 -9.952432967 2.943424282 -3.628819102
1430533002.050278187 -4.812403653 -0.063565846 -0.092694303 -10.138716164 3.551817608 -3.260366815
1430533002.060278177 -5.009494440 -0.050612227 -0.091645572 -10.321175917 3.897432754 -2.962798789
1430533002.070278168 -5.215332382 -0.045065830 -0.091833193 -10.378265008 4.040740113 -2.766587502
1430533002.080277920 -5.424746480 -0.030974583 -0.095271060 -10.391380503 3.907611024 -2.654397531
1430533002.090278149 -5.617350662 -0.019631122 -0.089760483 -10.267382795 3.612732058 -2.761531572
1430533002.100278378 -5.780615374 -0.007354018 -0.095182149 -10.090764392 3.134136123 -3.019450799
1430533002.110278130 -5.895145511 0.003828190 -0.095297936 -9.814368952 2.489775465 -3.465164812
1430533002.120278120 -5.950918422 0.012581485 -0.097036107 -9.478140888 1.754273440 -4.217408948
1430533002.130278111 -5.939394873 0.021488591 -0.100090663 -9.170574271 1.208384441 -4.830862794
1430533002.140278339 -5.873620553 0.026038956 -0.107051364 -8.955840410 0.931688151 -5.343953216
1430533002.150278091 -5.770875162 0.031947454 -0.114737059 -8.789865362 0.833389817 -5.706186502
1430533002.160278082 -5.637055804 0.035973886 -0.122119510 -8.692028898 0.858926410 -5.853847831
1430533002.170278072 -5.490230864 0.041023862 -0.128126308 -8.685801882 1.015227692 -5.784899716
1430533002.180278301 -5.344957798 0.044958612 -0.135408538 -8.762485140 1.218773150 -5.472722329
1430533002.190278053 -5.203933812 0.049590144 -0.139742671 -8.872955185 1.505818162 -4.932540005
1430533002.200278044 -5.090150701 0.052370527 -0.143610451 -9.062825804 1.771279365 -4.108287161
1430533002.210278034 -5.010518165 0.059051904 -0.144942551 -9.373668219 2.013636968 -3.024803693
1430533002.220278263 -4.981472579 0.063755129 -0.144341370 -9.714199489 2.128170920 -1.729435010
1430533002.230278254 -4.992116304 0.068786052 -0.142008168 -10.015501774 2.151141286 -0.596802831
1430533002.240278006 -5.055534713 0.074536306 -0.136388498 -10.240688970 2.079024555 0.310252749
1430533002.250278234 -5.139938921 0.078464850 -0.126155720 -10.345922080 1.954530135 0.978180686
1430533002.260278225 -5.247331480 0.077532458 -0.119956980 -10.480818790 1.782322325 1.340744446
1430533002.270278215 -5.366175118 0.080278164 -0.110404541 -10.477648260 1.590341759 1.475458984
1430533002.280277967 -5.477992748 0.077339643 -0.100845523 -10.365304030 1.475764734 1.353150791
1430533002.290278196 -5.581542298 0.072594187 -0.094091930 -10.223198728 1.462945739 1.025775263
1430533002.300278187 -5.660435360 0.064769331 -0.083055054 -10.004771176 1.593576517 0.406348085
1430533002.310278177 -5.709389229 0.057168628 -0.078621885 -9.651318269 1.832379432 -0.383523230
1430533002.320277929 -5.710186551 0.046797061 -0.077890695 -9.319795103 2.241197310 -1.306446479
1430533002.330278158 -5.667442949 0.032825713 -0.075100356 -8.931078165 2.822524348 -2.142000000
1430533002.340278387 -5.587340125 0.018046672 -0.070056594 -8.647828793 3.415777883 -2.762080537
1430533002.350278139 -5.483935682 0.001422632 -0.078860728 -8.443445096 3.955678742 -3.151955591
1430533002.360278130 -5.357764845 -0.013623292 -0.076674095 -8.286723083 4.581589114 -3.359614382
1430533002.370278120 -5.228936517 -0.025188580 -0.083067959 -8.165734650 5.025920151 -3.332789566
1430533002.380278349 -5.097764001 -0.041216859 -0.085416987 -8.121560750 5.431938283 -3.167640121
1430533002.390278101 -4.986113545 -0.052892160 -0.095637389 -8.166374168 5.745559148 -2.866494680
1430533002.400278091 -4.892093912 -0.068352585 -0.100865457 -8.287108369 5.887452142 -2.433977614
1430533002.410278082 -4.831799157 -0.079732893 -0.111700554 -8.411642957 5.939591681 -1.851917839
1430533002.420278311 -4.819911158 -0.086910968 -0.119606277 -8.643674121 5.844574273 -1.200809020
1430533002.430278063 -4.842771492 -0.095689212 -0.134748875 -8.820092229 5.647945328 -0.577345420
1430533002.440278053 -4.905330383 -0.099845397 -0.140840334 -8.954057562 5.407988714 0.036391547
1430533002.450278044 -4.999701147 -0.104958759 -0.150169475 -9.095854227 5.131374536 0.566123297
1430533002.460278273 -5.106350266 -0.109266566 -0.159543739 -9.153317054 4.798987348 1.023015502
1430533002.470278263 -5.225020562 -0.108171701 -0.163402159 -9.188865749 4.436750561 1.352804688
1430533002.480278015 -5.349552815 -0.108918122 -0.169717503 -9.132820196 4.113096257 1.667701416
1430533002.490278244 -5.462425450 -0.104433452 -0.165411026 -9.146043757 3.799442052 1.878899354
1430533002.500278234 -5.561581011 -0.101652239 -0.171727655 -8.973811689 3.403773400 2.007791798
1430533002.510278225 -5.631167062 -0.093648518 -0.167392740 -8.902269109 3.061275958 2.174399430
1430533002.520277977 -5.671985736 -0.085429962 -0.160882957 -8.685988438 2.736407239 2.194825776
1430533002.530278206 -5.672446632 -0.076768548 -0.147983661 -8.525659559 2.479535690 2.169334578
1430533002.540278196 -5.641172176 -0.058403967 -0.132307392 -8.398608805 2.157822172 2.182817330
1430533002.550278187 -5.584631763 -0.047593944 -0.120528045 -8.354216169 1.973550507 2.124117205
1430533002.560277939 -5.508704231 -0.032091157 -0.104040040 -8.301197136 1.754156708 2.097211934
1430533002.570278168 -5.419710278 -0.018495419 -0.085991612 -8.331829243 1.623221689 2.096317397
1430533002.580278158 -5.324097792 -0.003346008 -0.068700867 -8.371083839 1.419283120 2.051615790
1430533002.590278149 -5.220538799 0.006181193 -0.052340302 -8.481747035 1.349522660 2.055105343
1430533002.600277901 -5.128812639 0.022158560 -0.037995906 -8.600617397 1.273230622 2.045616462
1430533002.610278130 -5.045321621 0.028650839 -0.025043709 -8.807968823 1.215829648 2.036176194
1430533002.620278358 -4.977537400 0.036780066 -0.017111885 -9.014521942 1.171002083 2.087014716
1430533002.630278111 -4.929416475 0.043222122 -0.011965335 -9.235410883 1.110576304 2.116434622
1430533002.640278101 -4.900805261 0.046933342 -0.009447706 -9.413527444 1.017018836 2.172257391
1430533002.650278091 -4.886149926 0.047308645 -0.008460246 -9.533574715 0.929217065 2.165221393
1430533002.660278320 -4.888142878 0.053254699 -0.011901172 -9.656099263 0.776062068 2.204561549
1430533002.670278072 -4.906107648 0.048723539 -0.016600767 -9.753769885 0.621560107 2.242571391
1430533002.680278063 -4.937771167 0.046848596 -0.021512538 -9.763099628 0.431111576 2.241900617
1430533002.690278053 -4.979813312 0.044918784 -0.028873336 -9.772672014 0.204278542 2.255117226
1430533002.700278282 -5.034557129 0.045310839 -0.039468123 -9.765952348 -0.027190965 2.200706358
1430533002.710278034 -5.094473449 0.038983542 -0.045159695 -9.722197502 -0.261333296 2.167390761
1430533002.720278025 -5.160459927 0.035442212 -0.051289044 -9.609964826 -0.528864765 2.119460765
1430533002.730278254 -5.239392292 0.029009448 -0.058766582 -9.588387118 -0.826166578 2.011553455
1430533002.740278244 -5.310605613 0.023779976 -0.060301853 -9.523104723 -1.068127287 1.785274141
1430533002.750278234 -5.380725950 0.014083511 -0.068930513 -9.496330117 -1.319836781 1.553618898
1430533002.760277987 -5.446111296 0.007408479 -0.071507279 -9.526320686 -1.490149587 1.289084869
1430533002.770278215 -5.500396470 -0.003848993 -0.074640266 -9.511298511 -1.573669793 1.017360357
1430533002.780278206 -5.548855939 -0.017094184 -0.077648339 -9.593121509 -1.690365134 0.625246404
1430533002.790278196 -5.570895038 -0.025172490 -0.079773428 -9.690844056 -1.734227976 0.225341915
1430533002.800277948 -5.573017580 -0.034341946 -0.078322051 -9.800961384 -1.710398201 -0.201711767
1430533002.810278177 -5.562851477 -0.045425918 -0.075424552 -9.897839917 -1.580620079 -0.601804441
1430533002.820278168 -5.513086449 -0.056354433 -0.075357440 -10.094764873 -1.403309489 -1.078123378
1430533002.830278158 -5.436878281 -0.063783599 -0.073711127 -10.222702720 -1.261843359 -1.456219115
1430533002.840277910 -5.346765699 -0.070645177 -0.072037702 -10.319046625 -1.078810847 -1.697394636
1430533002.850278139 -5.245569874 -0.073900787 -0.069236732 -10.340330632 -0.974844375 -1.804187991
1430533002.860278368 -5.135822075 -0.077765256 -0.065866679 -10.295873617 -0.947473641 -1.920122655
1430533002.870278120 -5.036940469 -0.079423232 -0.069378734 -10.178617850 -0.945514107 -1.866747038
1430533002.880278111 -4.955585846 -0.080590953 -0.063463268 -10.070927890 -1.058318607 -1.722974285
1430533002.890278101 -4.894282813 -0.079319066 -0.063824348 -9.897746613 -1.276791539 -1.527870113
1430533002.900278330 -4.869962596 -0.074155559 -0.063908645 -9.630169936 -1.608792980 -1.303337391
1430533002.910278082 -4.883930042 -0.069521078 -0.073711194 -9.364590740 -2.017270733 -1.057227252
1430533002.920278072 -4.952348583 -0.059150029 -0.077867073 -8.975567306 -2.545779309 -0.771118965
1430533002.930278063 -5.070174683 -0.043396462 -0.087223538 -8.680903839 -3.118127134 -0.590123237
1430533002.940278292 -5.217743367 -0.030980713 -0.094763308 -8.398372297 -3.573597549 -0.439702001
1430533002.950278044 -5.395057370 -0.013492575 -0.107651578 -8.249869561 -3.981952550 -0.430031293
1430533002.960278034 -5.584396807 0.005799730 -0.117816784 -8.077500296 -4.306572161 -0.481525019
1430533002.970278263 -5.750213511 0.025051537 -0.125050228 -8.034705874 -4.518615289 -0.583252418
1430533002.980278254 -5.904899800 0.042236997 -0.128028899 -8.026103244 -4.624930824 -0.739352657
1430533002.990278244 -6.016514530 0.057241606 -0.134121757 -8.118398840 -4.733891761 -0.898074185
1430533003.000277996 -6.063932039 0.068914766 -0.129914886 -8.269433780 -4.621852836 -1.050576259
1430533003.010278225 -6.042837163 0.078738895 -0.121675342 -8.395975268 -4.430878709 -1.247983454
1430533003.020278215 -5.938514191 0.083179766 -0.106855704 -8.727033022 -4.174934227 -1.357780446
1430533003.030278206 -5.738563317 0.082973014 -0.089435971 -8.976895438 -3.978658311 -1.558550084
1430533003.040277958 -5.473298376 0.080679272 -0.064405819 -9.154311932 -3.730909682 -1.676034284
1430533003.050278187 -5.165961917 0.073387003 -0.041390281 -9.347437094 -3.528736762 -1.896470619
1430533003.060278177 -4.842943571 0.067541807 -0.016827762 -9.391045063 -3.321404451 -2.191369746
1430533003.070278168 -4.527413274 0.050956577 0.008678099 -9.435016697 -3.164033140 -2.431716334
1430533003.080277920 -4.244193282 0.039115688 0.029264186 -9.449937635 -2.976484041 -2.806014574
1430533003.090278149 -4.025974141 0.026678071 0.037937760 -9.428347460 -2.825447125 -3.159151649
1430533003.100278378 -3.884640787 0.017959510 0.051592422 -9.301124704 -2.589997658 -3.615747749
1430533003.110278130 -3.869377563 0.006818444 0.049700222 -9.118919378 -2.392508769 -4.163568138
1430533003.120278120 -3.985612225 0.001771113 0.040158527 -8.885693582 -2.148756170 -4.639677559
1430533003.130278111 -4.244966680 0.000486669 0.018808840 -8.685694289 -1.946959347 -5.165261840
1430533003.140278339 -4.617703256 0.007760671 -0.003589692 -8.495883371 -1.674439288 -5.557669003
1430533003.150278091 -5.064081747 0.014313763 -0.042747516 -8.375631673 -1.385855731 -5.705790080
1430533003.160278082 -5.549450909 0.020757940 -0.073071512 -8.333728551 -1.211312369 -5.787859491
1430533003.170278072 -6.031251606 0.027666241 -0.114180764 -8.359775841 -0.979297973 -5.749508070
1430533003.180278301 -6.478821863 0.037707035 -0.149426182 -8.389888687 -0.885808936 -5.582113855
1430533003.190278053 -6.840970696 0.041205456 -0.175430642 -8.434302898 -0.876651988 -5.310201373
1430533003.200278044 -7.093413038 0.044789835 -0.197123122 -8.618687072 -0.943950844 -4.981442463
1430533003.210278034 -7.189546432 0.042449245 -0.206850322 -8.804423585 -1.198450883 -4.506410857
1430533003.220278263 -7.090732832 0.032166511 -0.198456238 -9.056578544 -1.599418478 -4.097155760
1430533003.230278254 -6.790565846 0.007248366 -0.186028848 -9.284437290 -1.978703765 -3.747434614
1430533003.240278006 -6.329789547 -0.017183865 -0.160676000 -9.462960648 -2.155039423 -3.603193288
1430533003.250278234 -5.762555948 -0.045588912 -0.126400877 -9.572548279 -2.152436439 -3.482696676
1430533003.260278225 -5.141707904 -0.076309141 -0.095352450 -9.716503290 -1.974500077 -3.498458978
1430533003.270278215 -4.523396054 -0.105820513 -0.060260791 -9.758998412 -1.605613127 -3.513377836
1430533003.280277967 -3.964384430 -0.129638572 -0.027978411 -9.784337302 -1.016778562 -3.528650614
1430533003.290278196 -3.511051170 -0.146339621 -0.004114268 -9.778463186 -0.108125635 -3.460168217
1430533003.300278187 -3.223183753 -0.153653929 0.009772457 -9.749401116 0.943790984 -3.392680272
1430533003.310278177 -3.154016649 -0.149504013 0.009434998 -9.674464346 2.237679308 -3.326564276
1430533003.320277929 -3.355541544 -0.123242733 -0.003473148 -9.529782784 3.778160639 -3.146351719
1430533003.330278158 -3.852903057 -0.080434710 -0.031783975 -9.383972002 5.159010329 -2.861023209
1430533003.340278387 -4.582271797 -0.027211013 -0.069025436 -9.287582123 6.219567681 -2.563861923
1430533003.350278139 -5.482288170 0.045671196 -0.111573137 -9.228578736 6.946396610 -2.160763776
1430533003.360278130 -6.478004463 0.121206455 -0.162006261 -9.188000991 7.348177312 -1.696574591
1430533003.370278120 -7.495727925 0.199107234 -0.209807917 -9.125365215 7.412898101 -1.272001556
1430533003.380278349 -8.467328014 0.277334095 -0.251526428 -9.218590038 7.116939677 -0.976471811
1430533003.390278101 -9.321429807 0.343309036 -0.283990094 -9.223365849 6.489939105 -0.728339085
1430533003.400278091 -9.987900612 0.392883137 -0.310199559 -9.326089800 5.683754140 -0.851346349
1430533003.410278082 -10.398315777 0.424458449 -0.317768981 -9.423796227 4.632992651 -1.268646998
1430533003.420278311 -10.480822183 0.431150160 -0.313451872 -9.464524288 3.550225469 -2.172417451
1430533003.430278063 -10.195021633 0.409198997 -0.294338333 -9.561581179 2.707113993 -3.246377136
1430533003.440278053 -9.595670130 0.361652146 -0.264444374 -9.556646516 2.309407836 -4.286551834
1430533003.450278044 -8.753296095 0.293419031 -0.228742833 -9.571135420 2.136956334 -5.193301564
1430533003.460278273 -7.734743687 0.218430694 -0.189724809 -9.497675174 2.214955692 -5.938548151
1430533003.470278263 -6.603383398 0.128862165 -0.142447453 -9.423412109 2.425806075 -6.413642700
1430533003.480278015 -5.436170320 0.040901579 -0.104402822 -9.348998827 2.725837132 -6.664661658
1430533003.490278244 -4.296180792 -0.046213794 -0.075768697 -9.284463706 2.956296801 -6.645929665
1430533003.500278234 -3.254607767 -0.128352803 -0.048438190 -9.218292511 3.283047762 -6.384327463
1430533003.510278225 -2.368719561 -0.194317694 -0.032443652 -9.060783540 3.467968690 -5.926282282
1430533003.520277977 -1.728377086 -0.243849458 -0.023800021 -8.899353460 3.618782817 -5.167507939
1430533003.530278206 -1.360847057 -0.276028703 -0.025535287 -8.715314090 3.733199556 -4.346049572
1430533003.540278196 -1.246056522 -0.286281830 -0.037809095 -8.646437525 3.791799445 -3.531399963
1430533003.550278187 -1.339371147 -0.284684607 -0.050390778 -8.544352030 3.842190150 -2.757134645
1430533003.560277939 -1.609298371 -0.272272764 -0.068502122 -8.554194423 3.905694802 -2.058899838
1430533003.570278168 -2.013164559 -0.248157015 -0.084894072 -8.519875688 3.822635035 -1.329472773
1430533003.580278158 -2.501944963 -0.215278081 -0.106075766 -8.535240229 3.815619889 -0.641658298
1430533003.590278149 -3.052662011 -0.186202374 -0.118825973 -8.643504569 3.724675339 0.079577718
1430533003.600277901 -3.612761343 -0.153915723 -0.132119391 -8.752489968 3.585403532 0.775504410
1430533003.610278130 -4.151110383 -0.120788202 -0.139422397 -8.904669897 3.407608182 1.392015137
1430533003.620278358 -4.619982762 -0.099334639 -0.138830672 -9.039460757 3.188138517 1.995416443
1430533003.630278111 -4.993329607 -0.086046523 -0.138369937 -9.209676216 2.892200929 2.536556760
1430533003.640278101 -5.277877292 -0.076075492 -0.136403476 -9.329952506 2.630497168 2.919830700
1430533003.650278091 -5.486102269 -0.076028825 -0.135304837 -9.412215402 2.386214224 3.160091403
1430533003.660278320 -5.621069421 -0.077473101 -0.127008484 -9.460682222 2.166169301 3.296517018
1430533003.670278072 -5.695679379 -0.082643756 -0.118951993 -9.432201622 2.021214449 3.268506478
1430533003.680278063 -5.721709799 -0.087384126 -0.114840794 -9.437973648 1.958260860 3.139083862
1430533003.690278053 -5.710365514 -0.094191852 -0.110378464 -9.357115682 1.996882071 2.934327865
1430533003.700278282 -5.666974252 -0.093539426 -0.103530221 -9.180121181 2.180334104 2.621835687
1430533003.710278034 -5.607572971 -0.094839787 -0.103258701 -9.009135716 2.471199594 2.259311282
1430533003.720278025 -5.540605801 -0.086415560 -0.105350211 -8.795222162 2.955278229 1.862237028
1430533003.730278254 -5.466333402 -0.076292111 -0.100010416 -8.611181087 3.390192028 1.517122476
1430533003.740278244 -5.403908956 -0.061243173 -0.100153502 -8.485530243 3.747189253 1.355112846
1430533003.750278234 -5.338179606 -0.037304858 -0.101285955 -8.347753682 4.034968576 1.196640902
1430533003.760277987 -5.283510248 -0.012958272 -0.097926232 -8.282207773 4.157555306 1.276100065
1430533003.770278215 -5.230878320 0.012446474 -0.100756831 -8.264519352 4.163769840 1.339381495
1430533003.780278206 -5.180199139 0.036007896 -0.095102828 -8.337967930 3.987545764 1.532179536
1430533003.790278196 -5.138659897 0.058133129 -0.086073413 -8.398277519 3.632962823 1.635773327
1430533003.800277948 -5.099208950 0.075708189 -0.082381314 -8.527175626 3.091393522 1.812999099
1430533003.810278177 -5.072210105 0.093195979 -0.073166686 -8.692962355 2.438253700 2.009842585
1430533003.820278168 -5.045974099 0.101625384 -0.065155402 -8.889496297 1.561626643 2.058921383
1430533003.830278158 -5.037441568 0.101003551 -0.059979164 -9.080205861 0.630887116 2.144410348
1430533003.840277910 -5.031445402 0.099517934 -0.045838296 -9.284296031 -0.096981597 2.098711068
1430533003.850278139 -5.031184537 0.089524051 -0.047209161 -9.446687801 -0.746936256 1.982270074
1430533003.860278368 -5.038997204 0.079412407 -0.040529828 -9.536770295 -1.209608419 1.853497030
1430533003.870278120 -5.056165592 0.065707041 -0.036696728 -9.619539145 -1.619250746 1.708859742
1430533003.880278111 -5.072511576 0.049541973 -0.035782364 -9.707788689 -1.903077180 1.566776879
1430533003.890278101 -5.100802193 0.029846327 -0.034700708 -9.712820692 -2.047422747 1.447213969
1430533003.900278330 -5.126529288 0.014271445 -0.038440560 -9.662095564 -2.078428823 1.365623776
1430533003.910278082 -5.157341425 -0.000449470 -0.039613723 -9.652817321 -2.082801175 1.391786525
1430533003.920278072 -5.187542110 -0.009313990 -0.044577158 -9.577622773 -1.892917547 1.414410682
1430533003.930278063 -5.219453461 -0.013977469 -0.045414318 -9.465562674 -1.717377360 1.513484757
1430533003.940278292 -5.258354954 -0.021524227 -0.057283320 -9.422213572 -1.621509590 1.511236813
1430533003.950278044 -5.292507654 -0.024342702 -0.056788128 -9.398847941 -1.579823587 1.455728189
1430533003.960278034 -5.324106486 -0.027097658 -0.063139749 -9.410573311 -1.503558497 1.404790298
1430533003.970278263 -5.350001075 -0.023605226 -0.067170995 -9.438717388 -1.513295325 1.278818026
1430533003.980278254 -5.373291020 -0.020810068 -0.069327883 -9.445384270 -1.568144991 1.087786778
1430533003.990278244 -5.393198598 -0.024565284 -0.075144366 -9.506596176 -1.511613654 0.786706660
1430533004.000277996 -5.402738961 -0.022195787 -0.080718694 -9.574139135 -1.518673194 0.435460958
1430533004.010278225 -5.402281923 -0.026664833 -0.079718691 -9.628971783 -1.533478027 0.044797150
1430533004.020278215 -5.400070767 -0.025306252 -0.083695277 -9.806843510 -1.465597266 -0.475569363
1430533004.030278206 -5.375230027 -0.031878540 -0.084377978 -9.875126796 -1.391597076 -0.902776412
1430533004.040277958 -5.349686575 -0.044038848 -0.086615050 -9.935489849 -1.315592192 -1.293221064
1430533004.050278187 -5.316963690 -0.050600751 -0.088426907 -9.925235509 -1.243019698 -1.492039205
1430533004.060278177 -5.284998859 -0.060910485 -0.092421902 -9.958952531 -1.248131551 -1.600257827
1430533004.070278168 -5.248023292 -0.067851797 -0.095603395 -9.897615165 -1.271254760 -1.662479404
1430533004.080277920 -5.222462913 -0.074840590 -0.097721604 -9.843166909 -1.338031533 -1.561543624
1430533004.090278149 -5.194846481 -0.077681668 -0.100185137 -9.678942267 -1.492542808 -1.438172873
1430533004.100278378 -5.178981593 -0.078922912 -0.100803889 -9.563810257 -1.813225213 -1.238186130
1430533004.110278130 -5.180689376 -0.072225034 -0.101165331 -9.311197849 -2.129509248 -0.978582041
1430533004.120278120 -5.189824478 -0.062799084 -0.102235965 -9.063858045 -2.624751623 -0.701079266
1430533004.130278111 -5.217064024 -0.043661358 -0.100862218 -8.833491797 -3.095905576 -0.447005327
1430533004.140278339 -5.261266528 -0.022487055 -0.097961714 -8.604565981 -3.633121380 -0.321350277
1430533004.150278091 -5.309114893 -0.001458914 -0.095549227 -8.454445505 -4.036774083 -0.246781546
1430533004.160278082 -5.364998401 0.026132245 -0.086342334 -8.349031314 -4.359070090 -0.289437020
1430533004.170278072 -5.415787849 0.048604844 -0.081087726 -8.360893322 -4.584661130 -0.371885147
1430533004.180278301 -5.465210794 0.079108727 -0.073880537 -8.342992630 -4.713401038 -0.561869370
1430533004.190278053 -5.502392958 0.104103336 -0.067904423 -8.372597043 -4.790435422 -0.709615539
1430533004.200278044 -5.519954446 0.118786975 -0.058612830 -8.511348743 -4.711548733 -0.927286222
1430533004.210278034 -5.524552792 0.131789902 -0.055434092 -8.652487375 -4.550355793 -1.110311126
1430533004.220278263 -5.497406130 0.135249610 -0.052957119 -8.868666417 -4.309115956 -1.339767089
1430533004.230278254 -5.442932040 0.134121812 -0.056283733 -9.119173349 -3.971709030 -1.560408370
1430533004.240278006 -5.366089541 0.129456972 -0.060077532 -9.289878907 -3.678650866 -1.793171542
1430533004.250278234 -5.275428713 0.118845126 -0.070129424 -9.422317822 -3.422668279 -2.091374639
1430533004.260278225 -5.174449320 0.101448870 -0.077459491 -9.473387751 -3.196568410 -2.412763608
1430533004.270278215 -5.080059875 0.080781984 -0.089890969 -9.463993341 -2.921546289 -2.737974146
1430533004.280277967 -4.989141765 0.062709928 -0.098664312 -9.467787398 -2.677963608 -3.134918250
1430533004.290278196 -4.917030629 0.041957867 -0.111327307 -9.362482650 -2.405493600 -3.574151363
1430533004.300278187 -4.873135539 0.022995675 -0.121126779 -9.245511402 -2.114710955 -4.071014865
1430533004.310278177 -4.859808070 0.007815439 -0.126178041 -9.048296165 -1.810459551 -4.598782152
1430533004.320277929 -4.885473320 -0.006877876 -0.128668654 -8.814417681 -1.464912288 -5.169687877
1430533004.330278158 -4.962312670 -0.016654441 -0.129932639 -8.552557134 -1.055597862 -5.695640886
1430533004.340278387 -5.076737020 -0.022422141 -0.126983973 -8.329060276 -0.700838316 -6.074149306
1430533004.350278139 -5.215575507 -0.028644902 -0.114473948 -8.221139528 -0.328627111 -6.199741628
1430533004.360278130 -5.367020682 -0.035155338 -0.102277589 -8.154086076 -0.148947474 -6.228975475
1430533004.370278120 -5.521592775 -0.035094178 -0.086274522 -8.143756705 0.031594157 -6.096612108
1430533004.380278349 -5.660091812 -0.037533029 -0.074327007 -8.186434735 0.055135996 -5.778531299
1430533004.390278101 -5.780603338 -0.040883790 -0.062189152 -8.315672048 0.009430188 -5.399656725
1430533004.400278091 -5.857630849 -0.041895727 -0.046126103 -8.490970087 -0.275970405 -4.943560283
1430533004.410278082 -5.888859275 -0.047542220 -0.041875930 -8.718753494 -0.684534030 -4.388491347
1430533004.420278311 -5.857150023 -0.056734249 -0.037126580 -9.012486900 -1.347265138 -3.826910739
1430533004.430278063 -5.748975941 -0.060220269 -0.037902050 -9.322849027 -2.041500176 -3.324292926
1430533004.440278053 -5.588534022 -0.061681456 -0.045675366 -9.552888971 -2.469407837 -3.087208424
1430533004.450278044 -5.386879452 -0.067047473 -0.055863748 -9.769667145 -2.676503259 -2.937122444
1430533004.460278273 -5.162040478 -0.068493385 -0.067980021 -9.839042905 -2.665911903 -2.873192180
1430533004.470278263 -4.945262050 -0.068102432 -0.080989107 -9.924567675 -2.383314433 -2.906731197
1430533004.480278015 -4.746626122 -0.066687602 -0.096873276 -9.946542343 -1.803922721 -2.994311012
1430533004.490278244 -4.592374411 -0.057410164 -0.111784726 -9.947360974 -0.869644931 -3.098369503
1430533004.500278234 -4.493730752 -0.049789721 -0.127351250 -9.808996105 0.323724666 -3.095278844
1430533004.510278225 -4.480885888 -0.033857668 -0.132825126 -9.687540604 1.797628449 -2.996859543
1430533004.520277977 -4.563997767 -0.019995650 -0.140869184 -9.486062624 3.548692682 -2.843206100
1430533004.530278206 -4.765515798 0.002648310 -0.144982706 -9.325995644 5.358177342 -2.486599530
1430533004.540278196 -5.067767774 0.023036938 -0.142453318 -9.118635301 6.717704530 -2.066066489
1430533004.550278187 -5.435749191 0.046725602 -0.136903149 -9.047403694 7.638567907 -1.626358327
1430533004.560277939 -5.845913500 0.072817460 -0.127270192 -8.978893560 8.205667130 -1.161864476
1430533004.570278168 -6.270021723 0.095676268 -0.116672765 -8.967658071 8.382207234 -0.791075028
1430533004.580278158 -6.679752182 0.116561557 -0.103696991 -8.952265753 8.054521823 -0.540385722
1430533004.590278149 -7.041031487 0.133442447 -0.088316967 -9.014406225 7.445786276 -0.492684945
1430533004.600277901 -7.328352744 0.139954532 -0.078713242 -9.044304232 6.509395398 -0.793815889
1430533004.610278130 -7.514015424 0.144252540 -0.068840905 -9.169720744 5.334271629 -1.407871730
1430533004.620278358 -7.567359924 0.138929886 -0.054641497 -9.274602243 3.993818754 -2.521830527
1430533004.630278111 -7.466106106 0.136001895 -0.047496297 -9.456125919 2.770755399 -3.912702250
1430533004.640278101 -7.223136215 0.119769322 -0.046965682 -9.548818257 1.950070019 -5.204003133
1430533004.650278091 -6.873296037 0.097997782 -0.045619266 -9.608113011 1.543127108 -6.281202256
1430533004.660278320 -6.438528466 0.077835890 -0.044842795 -9.685450686 1.372673007 -7.110353566
1430533004.670278072 -5.954541597 0.053437251 -0.050919196 -9.689855892 1.440975412 -7.655946765
1430533004.680278063 -5.444255392 0.033358440 -0.058290503 -9.625021732 1.650980619 -7.829660403
1430533004.690278053 -4.942839651 0.010223076 -0.063297708 -9.612538391 1.955113289 -7.664928963
1430533004.700278282 -4.477186276 -0.007417341 -0.072311576 -9.497514565 2.300673841 -7.170950454
1430533004.710278034 -4.072870275 -0.029497111 -0.083322741 -9.419949889 2.660454271 -6.259669562
1430533004.720278025 -3.770246233 -0.040986127 -0.087627016 -9.236205522 2.897900053 -4.985245918
1430533004.730278254 -3.580233557 -0.050677959 -0.100822821 -9.124152082 3.146853480 -3.499297795
1430533004.740278244 -3.509310989 -0.058610194 -0.105928716 -9.011494616 3.227209328 -2.147506975
1430533004.750278234 -3.531933634 -0.062554530 -0.112025372 -8.905749207 3.319225580 -1.018657325
1430533004.760277987 -3.635347003 -0.060234848 -0.115686240 -8.777713891 3.287651198 -0.081188757
1430533004.770278215 -3.810187697 -0.063892285 -0.119873292 -8.744571738 3.241658994 0.752318208
1430533004.780278206 -4.019371574 -0.063987747 -0.121566481 -8.712564041 3.198698679 1.461772513
1430533004.790278196 -4.264728231 -0.057768676 -0.121121961 -8.625400223 3.098217238 1.950803564
1430533004.800277948 -4.513883461 -0.062162932 -0.122795598 -8.672043080 3.022328053 2.257575509
1430533004.810278177 -4.764728430 -0.061451135 -0.118702691 -8.695937856 3.017128776 2.428853373
1430533004.820278168 -4.987141551 -0.061602566 -0.119169758 -8.712364127 3.009224242 2.489415995
1430533004.830278158 -5.175000206 -0.060873087 -0.112630174 -8.764040497 3.027018277 2.423915630
1430533004.840277910 -5.317049841 -0.062744448 -0.103716887 -8.821712966 3.072873265 2.405726790
1430533004.850278139 -5.419882027 -0.065418103 -0.102988554 -8.877106369 3.107358581 2.370581188
1430533004.860278368 -5.492159600 -0.068523854 -0.098052176 -8.873713094 3.135511772 2.273218511
1430533004.870278120 -5.536926399 -0.071586807 -0.093833678 -8.965115614 3.091360098 2.189944406
1430533004.880278111 -5.552826225 -0.070140579 -0.086699657 -8.968078095 3.136286560 2.133417085
1430533004.890278101 -5.550680912 -0.067420274 -0.083400999 -8.972690813 3.092463578 1.991965034
1430533004.900278330 -5.534764571 -0.063887171 -0.082768781 -8.958692542 3.071777152 1.901852151
1430533004.910278082 -5.495596314 -0.054797075 -0.081408747 -8.995638067 3.074230436 1.760311288
1430533004.920278072 -5.450488463 -0.044322738 -0.078296860 -8.884345063 3.033862559 1.625168399
1430533004.930278063 -5.405587510 -0.028847058 -0.078004180 -8.917741295 3.066425591 1.483439530
1430533004.940278292 -5.352867074 -0.014527213 -0.080706705 -8.898410378 3.029865077 1.385751300
1430533004.950278044 -5.302312277 0.005789289 -0.081031932 -8.895978912 2.960818941 1.377849542
1430533004.960278034 -5.249194318 0.027337892 -0.088320932 -8.898744291 2.833838574 1.416373038
1430533004.970278263 -5.197020001 0.049859010 -0.086293685 -8.893954383 2.619243331 1.469087480
1430533004.980278254 -5.149672783 0.068064939 -0.090241559 -8.892809232 2.366991035 1.582575587
1430533004.990278244 -5.106862904 0.087816286 -0.084476951 -8.992589525 2.014365684 1.712385628
1430533005.000277996 -5.071801017 0.103054468 -0.087218698 -8.985888466 1.623378657 1.865369886
1430533005.010278225 -5.047246212 0.114685941 -0.084123175 -9.041030986 1.069218600 1.982428116
1430533005.020278215 -5.034676241 0.120254371 -0.078483437 -9.122232245 0.522995946 2.212426740
1430533005.030278206 -5.027014510 0.118906331 -0.074598761 -9.138836145 -0.127761333 2.259023615
1430533005.040277958 -5.034332792 0.113332943 -0.062702243 -9.214308528 -0.684490572 2.260781655
1430533005.050278187 -5.046530771 0.099288382 -0.057391967 -9.289964028 -1.163007839 2.265221162
1430533005.060278177 -5.069789039 0.088591877 -0.048953819 -9.332743045 -1.486852701 2.171248245
1430533005.070278168 -5.100223125 0.069417387 -0.043798448 -9.392164129 -1.794488595 2.020082021
1430533005.080277920 -5.131359648 0.050453187 -0.043298118 -9.424659858 -1.917679446 1.899116368
1430533005.090278149 -5.163915646 0.029236703 -0.035765559 -9.429602841 -2.006437865 1.788223425
1430533005.100278378 -5.194054929 0.010645513 -0.035667078 -9.483538696 -1.961248408 1.657299071
1430533005.110278130 -5.222655040 -0.006859964 -0.034444719 -9.480350134 -1.817904950 1.518292081
1430533005.120278120 -5.248546333 -0.024632677 -0.035358801 -9.512888866 -1.610418898 1.457491811
1430533005.130278111 -5.266820332 -0.035831320 -0.039318507 -9.536857565 -1.288582396 1.428098087
1430533005.140278339 -5.277898743 -0.044449942 -0.043858081 -9.537134939 -1.085738074 1.407281971
1430533005.150278091 -5.287555530 -0.051935377 -0.048753769 -9.573019237 -0.955177710 1.312326595
1430533005.160278082 -5.293750688 -0.050822586 -0.058886938 -9.574084421 -0.923477193 1.224993434
1430533005.170278072 -5.294094643 -0.052929903 -0.061236087 -9.578263267 -0.942109423 1.099198382
1430533005.180278301 -5.295688058 -0.050500903 -0.065538817 -9.562692248 -1.029814886 0.875571378
1430533005.190278053 -5.295907828 -0.048936729 -0.071429014 -9.597164757 -1.135641468 0.606271636
1430533005.200278044 -5.297755288 -0.039943761 -0.078821074 -9.616606313 -1.294638488 0.220787314
1430533005.210278034 -5.301634818 -0.042153678 -0.083335494 -9.524774984 -1.464233884 -0.250333018
1430533005.220278263 -5.307504677 -0.040495124 -0.087075847 -9.537832071 -1.636368854 -0.795619211
1430533005.230278254 -5.319471916 -0.037740831 -0.090200473 -9.513124529 -1.798187333 -1.364654235
1430533005.240278006 -5.336623331 -0.041728221 -0.095753350 -9.529800487 -1.940796671 -1.839119072
1430533005.250278234 -5.350739360 -0.044364476 -0.094983787 -9.490637505 -1.984684317 -2.138212151
1430533005.260278225 -5.369961759 -0.051850863 -0.102562284 -9.402671935 -2.018541052 -2.338773133
1430533005.270278215 -5.383854839 -0.050937357 -0.102245725 -9.427584235 -2.012346156 -2.350808023
1430533005.280277967 -5.397402522 -0.053162239 -0.104999864 -9.331231672 -2.097689407 -2.252630633
1430533005.290278196 -5.409402780 -0.056256761 -0.108248951 -9.277585899 -2.146693387 -2.017457485
1430533005.300278187 -5.407944776 -0.054049625 -0.107026281 -9.215571836 -2.312393969 -1.590567634
1430533005.310278177 -5.399689542 -0.047266091 -0.104423722 -9.125676561 -2.559608966 -1.128721488
1430533005.320277929 -5.387567252 -0.034915435 -0.103212991 -9.068260613 -2.945698282 -0.495472139
1430533005.330278158 -5.359485663 -0.023947459 -0.098619709 -8.930649642 -3.344230249 0.131702925
1430533005.340278387 -5.324872615 -0.005962152 -0.092566022 -8.876194619 -3.806720991 0.624183325
1430533005.350278139 -5.281176170 0.015107657 -0.083355616 -8.812575284 -4.271327151 0.850326361
1430533005.360278130 -5.234404579 0.034557806 -0.076046522 -8.789065804 -4.616551007 0.920405543
1430533005.370278120 -5.194352225 0.056620084 -0.068410306 -8.759810088 -4.940648542 0.846498051
1430533005.380278349 -5.158292921 0.079222366 -0.063314168 -8.799377598 -5.120093524 0.610727605
1430533005.390278101 -5.126420166 0.100715770 -0.055482396 -8.855810907 -5.186431676 0.244219152
1430533005.400278091 -5.108844169 0.117189157 -0.047321197 -8.886433585 -5.057606905 -0.243344051
1430533005.410278082 -5.103931889 0.131905206 -0.046073922 -8.925053479 -4.844697290 -0.854515420
1430533005.420278311 -5.120777614 0.134918361 -0.043562188 -9.008236747 -4.411802168 -1.558657392
1430533005.430278063 -5.161379085 0.136983510 -0.050838084 -9.074273739 -3.853527878 -2.227288511
1430533005.440278053 -5.215554883 0.134540340 -0.058718295 -9.167570451 -3.294685617 -2.841475374
1430533005.450278044 -5.286739761 0.127855748 -0.069686953 -9.256898090 -2.797864080 -3.267631891
1430533005.460278273 -5.358263253 0.112522797 -0.080351430 -9.293235852 -2.335652677 -3.716865228
1430533005.470278263 -5.440786985 0.097280786 -0.095749877 -9.275186242 -1.989367927 -3.979726157
1430533005.480278015 -5.514057043 0.080204484 -0.112211162 -9.250138174 -1.652303755 -4.234745999
1430533005.490278244 -5.572698666 0.065753533 -0.126085034 -9.153375993 -1.410457721 -4.432428830
1430533005.500278234 -5.611488248 0.045824732 -0.137895901 -9.130952168 -1.397278436 -4.575053092
1430533005.510278225 -5.629980321 0.033527298 -0.144174122 -9.062975276 -1.373751957 -4.716893106
1430533005.520277977 -5.619988833 0.015164067 -0.146034222 -8.945641996 -1.433626036 -4.818280144
1430533005.530278206 -5.567675792 -0.001322880 -0.139846755 -8.829512339 -1.611463259 -4.991973151
1430533005.540278196 -5.481564805 -0.012248417 -0.129852055 -8.717461549 -1.698539383 -5.063497209
1430533005.550278187 -5.373753867 -0.022615028 -0.113770218 -8.636218960 -1.660425772 -5.188822326
1430533005.560277939 -5.251531066 -0.031534636 -0.091610194 -8.605992368 -1.572083454 -5.232325389
1430533005.570278168 -5.128328200 -0.038992379 -0.070860662 -8.553017268 -1.419981237 -5.272589940
1430533005.580278158 -5.005425933 -0.048962295 -0.049022275 -8.607527601 -1.223009071 -5.186727343
1430533005.590278149 -4.894128543 -0.057828593 -0.033373584 -8.634234362 -0.924754269 -5.092730761
1430533005.600277901 -4.806285086 -0.062637817 -0.013493419 -8.710381591 -0.590952177 -4.863984206
1430533005.610278130 -4.760505470 -0.066769141 -0.011463582 -8.801823274 -0.254655488 -4.576681180
1430533005.620278358 -4.749779843 -0.069540363 -0.005270531 -8.868876661 0.129710101 -4.167056950
1430533005.630278111 -4.791477605 -0.068031874 -0.014524143 -9.039741084 0.547409244 -3.719575039
1430533005.640278101 -4.879690519 -0.066475806 -0.034001486 -9.166972963 0.883065342 -3.320774540
1430533005.650278091 -5.005901865 -0.059523211 -0.053998805 -9.230221397 1.131134953 -3.025235539
1430533005.660278320 -5.155588707 -0.052837013 -0.084983468 -9.369953666 1.358329292 -2.730528056
1430533005.670278072 -5.317170043 -0.040699898 -0.112891785 -9.441096925 1.447718456 -2.604115876
1430533005.680278063 -5.481603354 -0.026426466 -0.144367911 -9.465017420 1.639640718 -2.565865693
1430533005.690278053 -5.627834324 -0.012350837 -0.171510725 -9.544802896 1.766952299 -2.629505225
1430533005.700278282 -5.757051331 0.002904389 -0.191666149 -9.561842391 1.953747676 -2.766398129
1430533005.710278034 -5.840571270 0.018010230 -0.208873933 -9.606914617 2.125950825 -2.971381749
1430533005.720278025 -5.878249119 0.031293705 -0.211974024 -9.559513043 2.383297996 -3.302761808
1430533005.730278254 -5.858518796 0.042110258 -0.210015037 -9.548532393 2.689444887 -3.712379444
1430533005.740278244 -5.777694793 0.047285054 -0.196391332 -9.525977536 2.985161269 -3.985166586
1430533005.750278234 -5.656648924 0.049840193 -0.176804822 -9.555522337 3.210745637 -4.125980436
1430533005.760277987 -5.503166053 0.051891712 -0.147272479 -9.522213893 3.510579942 -4.143521859
1430533005.770278215 -5.336420932 0.050640344 -0.118482907 -9.533344283 3.668112977 -4.056432716
1430533005.780278206 -5.170130794 0.044398927 -0.083832879 -9.517292237 3.774418808 -3.930755522
1430533005.790278196 -5.020489545 0.041656370 -0.056385854 -9.464681711 3.750938823 -3.654981424
1430533005.800277948 -4.900576889 0.033956963 -0.034433141 -9.458790640 3.649340291 -3.335145581
1430533005.810278177 -4.826296265 0.031094524 -0.009469004 -9.435003201 3.536837734 -2.970748820
1430533005.820278168 -4.804317376 0.031479210 -0.001133546 -9.423794452 3.188388725 -2.543267016
1430533005.830278158 -4.862807513 0.031827830 0.001662657 -9.398645816 2.756136364 -2.131543239
1430533005.840277910 -4.988019915 0.035225076 -0.002843080 -9.383558346 2.368439013 -1.763867477
1430533005.850278139 -5.161172424 0.043156606 -0.012336472 -9.325580728 2.127097855 -1.506528398
1430533005.860278368 -5.364532925 0.050439624 -0.034412181 -9.312358625 1.973956960 -1.336011014
1430533005.870278120 -5.582948472 0.060702154 -0.055621200 -9.298808850 1.809903458 -1.214258796
1430533005.880278111 -5.787093211 0.071836712 -0.077352728 -9.209016333 1.823265567 -1.142125856
1430533005.890278101 -5.972286721 0.078671171 -0.095811316 -9.156857847 1.937527012 -1.140756989
1430533005.900278330 -6.109029144 0.084733533 -0.117099455 -9.121466634 2.169560089 -1.097901645
1430533005.910278082 -6.179136998 0.079545076 -0.128721043 -9.010790383 2.540538199 -1.017648446
1430533005.920278072 -6.165536459 0.076097589 -0.139581724 -8.951154760 2.965784949 -0.924914989
1430533005.930278063 -6.049806684 0.058634522 -0.135695872 -8.873294520 3.481941245 -0.806026024
1430533005.940278292 -5.841130202 0.033265200 -0.133251236 -8.781390328 3.889511188 -0.720208675
1430533005.950278044 -5.557915542 0.006382024 -0.117232396 -8.719752994 4.315918939 -0.543733047
1430533005.960278034 -5.233498169 -0.026450197 -0.107718838 -8.667484750 4.553375328 -0.360983599
1430533005.970278263 -4.890236291 -0.065915278 -0.087313874 -8.685401268 4.742726912 -0.286049955
1430533005.980278254 -4.566852768 -0.102344279 -0.075157013 -8.681512500 4.869455811 -0.224594123
1430533005.990278244 -4.281947566 -0.133273403 -0.060539009 -8.668752019 4.931512597 -0.200473531
1430533006.000277996 -4.064783092 -0.157524701 -0.052484722 -8.707975453 4.894673331 -0.222840708
1430533006.010278225 -3.944172458 -0.176620968 -0.049181318 -8.750894381 4.820900548 -0.354302963
1430533006.020278215 -3.945012456 -0.183649651 -0.051808183 -8.788411275 4.724393118 -0.499419557
1430533006.030278206 -4.093718256 -0.175614691 -0.065370300 -8.829882328 4.527430223 -0.743167208
1430533006.040277958 -4.391341673 -0.155892476 -0.083065809 -8.941357246 4.325280760 -0.837775806
1430533006.050278187 -4.787285699 -0.124975088 -0.105916052 -9.000044842 4.213345900 -0.795229011
1430533006.060278177 -5.252974236 -0.085487557 -0.131158312 -9.039678419 4.099224117 -0.638823723
1430533006.070278168 -5.744576700 -0.042416230 -0.154814965 -9.042672138 3.835854261 -0.288724849
1430533006.080277920 -6.221568848 0.002255582 -0.172733081 -9.049615692 3.615035317 0.196671940
1430533006.090278149 -6.649576847 0.045627420 -0.190114700 -9.076257129 3.260908737 0.754458540
1430533006.100278378 -6.984463296 0.084130312 -0.198862684 -9.092029955 2.778407141 1.439725637
1430533006.110278130 -7.185559889 0.112539561 -0.195389514 -9.049826820 2.210406114 2.179148140
1430533006.120278120 -7.219269792 0.129905955 -0.184788670 -9.058110305 1.393316988 3.014942962
1430533006.130278111 -7.040991172 0.132534333 -0.169558088 -9.028863360 0.523778815 3.764375291
1430533006.140278339 -6.657923295 0.118343657 -0.145221408 -9.028462424 -0.342138759 4.283987801
1430533006.150278091 -6.114890710 0.093926691 -0.117232573 -9.041570810 -1.052583867 4.468051768
1430533006.160278082 -5.450165652 0.054359871 -0.088796245 -9.005546995 -1.604963750 4.387007974
1430533006.170278072 -4.710368928 0.011630791 -0.055551989 -9.039877251 -1.885687993 4.055062755
1430533006.180278301 -3.941517002 -0.033724272 -0.034083482 -9.104430638 -1.853976988 3.581308378
1430533006.190278053 -3.179132847 -0.089116289 -0.009149932 -9.138260508 -1.562896696 2.985100545
1430533006.200278044 -2.478718820 -0.130826930 0.002559500 -9.254433128 -1.025017909 2.199381256
1430533006.210278034 -1.873052594 -0.174579367 0.002600904 -9.368628065 -0.170777176 1.337053765
1430533006.220278263 -1.416339841 -0.212508155 -0.002204872 -9.449576225 0.983060099 0.285766548
1430533006.230278254 -1.150717530 -0.236055675 -0.015255012 -9.635159086 2.261991964 -0.728060467
1430533006.240278006 -1.084858586 -0.247860641 -0.044592651 -9.693842291 3.297359384 -1.525610157
1430533006.250278234 -1.210779173 -0.252973724 -0.072886314 -9.719227166 3.870819548 -1.918426373
1430533006.260278225 -1.503047037 -0.245635663 -0.102283292 -9.792105129 4.009924513 -1.914133363
1430533006.270278215 -1.961170011 -0.230509943 -0.136302180 -9.748948055 3.764564490 -1.652828764
1430533006.280277967 -2.555107104 -0.208945024 -0.160161088 -9.631805715 2.965923403 -1.010894368
1430533006.290278196 -3.272406656 -0.172598836 -0.171367036 -9.513437281 1.783346512 -0.100963963
1430533006.300278187 -4.099455184 -0.137573051 -0.167025856 -9.274014863 0.028590872 1.008915459
1430533006.310278177 -5.017572899 -0.085417264 -0.144198817 -8.986978910 -2.311125869 2.227276680
1430533006.320277929 -6.015162170 -0.035842436 -0.106238262 -8.653060299 -5.252735991 3.419487948
1430533006.330278158 -7.072645122 0.031458467 -0.042702683 -8.277468229 -8.831473915 4.317887513
1430533006.340278387 -8.154757507 0.098337874 0.041740555 -7.968426604 -11.883345603 4.446135819
1430533006.350278139 -9.227299018 0.168634416 0.143211480 -7.760410949 -14.152204380 3.817022326
1430533006.360278130 -10.237050989 0.233365024 0.255860861 -7.723663333 -15.473242208 2.480106481
1430533006.370278120 -11.147700154 0.298383209 0.365432868 -7.794567554 -15.804581144 0.698373335
1430533006.380278349 -11.908135444 0.356387634 0.472644025 -7.979416965 -15.041490004 -1.104182012
1430533006.390278101 -12.474706390 0.394048740 0.563846674 -8.220618934 -13.153666721 -2.636545067
1430533006.400278091 -12.807272601 0.412780534 0.635522324 -8.522089463 -10.204071124 -3.474306289
1430533006.410278082 -12.860649248 0.414170814 0.675481955 -8.932013321 -6.535941098 -3.258856472
1430533006.420278311 -12.583229977 0.399084867 0.676621847 -9.403464274 -2.425608921 -1.662639083
1430533006.430278063 -11.941690374 0.363070588 0.626559677 -9.840693524 1.695882315 1.382539536
1430533006.440278053 -10.941988098 0.315220019 0.528834192 -10.248281450 4.537256246 4.940716173
1430533006.450278044 -9.666200868 0.258314285 0.394544294 -10.574174883 6.067539757 8.285130022
1430533006.460278273 -8.196624406 0.197678094 0.233278421 -10.795783569 6.533031033 11.224272132
1430533006.470278263 -6.613141136 0.139941721 0.060375286 -10.934637938 6.233692032 13.398252473
1430533006.480278015 -5.005347861 0.090938661 -0.117358473 -11.022331158 5.457253851 14.670400234
1430533006.490278244 -3.456861233 0.044216974 -0.291645406 -11.050813057 4.309020806 15.076182455
1430533006.500278234 -2.046966381 0.018050255 -0.448242081 -10.922268625 3.024341151 14.528074014
1430533006.510278225 -0.865217310 0.006490707 -0.581139247 -10.767049484 1.538353036 13.042096008
1430533006.520277977 0.009069662 0.007299145 -0.683236227 -10.446923894 -0.152678294 10.696499250
1430533006.530278206 0.490775501 0.025660797 -0.745455130 -10.080464195 -2.066063725 7.621010946
1430533006.540278196 0.559077225 0.047993919 -0.764787802 -9.648976007 -3.827236297 4.700475586
1430533006.550278187 0.285727756 0.075873126 -0.751415329 -9.232504504 -5.317515112 2.088322569
1430533006.560277939 -0.263154972 0.108612954 -0.706985061 -8.870080182 -6.572234968 -0.246626797
1430533006.570278168 -1.014658400 0.133918577 -0.634822634 -8.565849004 -7.414542995 -2.272000826
1430533006.580278158 -1.894061052 0.161467826 -0.552160987 -8.309631644 -8.033921423 -4.090930295
1430533006.590278149 -2.835860640 0.170233399 -0.447284247 -8.051529212 -8.169371438 -5.637329264
1430533006.600277901 -3.757388240 0.169184100 -0.339505520 -7.904869383 -7.910410119 -6.922980524
1430533006.610278130 -4.605112740 0.158412657 -0.236003619 -7.808893634 -7.261408398 -7.927904892
1430533006.620278358 -5.294080697 0.136429812 -0.143079240 -7.804561821 -6.223002597 -8.628173109
1430533006.630278111 -5.758542484 0.117670126 -0.058816812 -7.831177422 -4.888929943 -8.902554945
1430533006.640278101 -5.970409102 0.091949807 0.008366770 -7.906111261 -3.443373819 -8.994153675
1430533006.650278091 -5.979846119 0.067272088 0.059954310 -7.943867256 -2.071331511 -9.095543383
1430533006.660278320 -5.827503847 0.051223240 0.097610317 -8.004176512 -0.696067272 -9.148086466
1430533006.670278072 -5.554791579 0.027058718 0.126341159 -7.979409167 0.674541773 -9.151337446
1430533006.680278063 -5.217487296 0.014153394 0.138281499 -7.983949790 2.013233539 -9.160346883
1430533006.690278053 -4.860283770 -0.001741281 0.148005099 -8.002664209 3.318801472 -9.116429587
1430533006.700278282 -4.523535169 -0.011874832 0.152200093 -7.995041543 4.597970529 -9.114322264
1430533006.710278034 -4.261203801 -0.019661573 0.141560577 -7.940238656 5.838044022 -9.053157188
1430533006.720278025 -4.110145459 -0.032005859 0.134128330 -7.893205584 7.151635031 -9.076677612
1430533006.730278254 -4.124732568 -0.042810623 0.114095523 -7.852763713 8.464149896 -9.054355062
1430533006.740278244 -4.317901579 -0.051831198 0.095755181 -7.877040271 9.317231491 -8.731646806
1430533006.750278234 -4.648735359 -0.063179282 0.072110198 -7.982826762 9.571866208 -8.101814672
1430533006.760277987 -5.076429232 -0.069282474 0.041390824 -8.098807779 9.226479385 -7.233886810
1430533006.770278215 -5.571685470 -0.076371169 0.008364161 -8.312512710 8.282454883 -6.203081516
1430533006.780278206 -6.091017239 -0.080892736 -0.020433311 -8.666455647 6.677420626 -5.139467161
1430533006.790278196 -6.589382710 -0.083563873 -0.049709780 -9.012921154 4.421333806 -4.127029080
1430533006.800277948 -7.034353850 -0.080380983 -0.082581596 -9.421795789 1.378542901 -3.345851618
1430533006.810278177 -7.385404070 -0.070410332 -0.104316772 -9.932945416 -2.285242202 -2.975791899
1430533006.820278168 -7.599361470 -0.061585151 -0.130610433 -10.501118103 -6.639889511 -3.276816510
1430533006.830278158 -7.644762081 -0.047097280 -0.146806034 -11.102412036 -11.391883453 -4.299264769
1430533006.840277910 -7.504582891 -0.032257334 -0.161495294 -11.596323341 -15.383177128 -5.994457733
1430533006.850278139 -7.209072042 -0.012869283 -0.171216686 -11.971623530 -17.969895999 -7.931726919
1430533006.860278368 -6.805372588 0.008144275 -0.181083374 -12.151631721 -19.332078687 -9.882387898
1430533006.870278120 -6.314845798 0.031103339 -0.182197491 -12.197220734 -19.442731036 -11.579986323
1430533006.880278111 -5.781463635 0.057398435 -0.183786437 -12.121480714 -18.416124212 -12.803787728
1430533006.890278101 -5.241218052 0.078028897 -0.180721316 -11.909483478 -16.441126460 -13.252754331
1430533006.900278330 -4.726577287 0.092570551 -0.174159990 -11.521941785 -13.483708842 -12.922157844
1430533006.910278082 -4.273088291 0.111531953 -0.165308997 -11.088286491 -9.787298127 -11.615515416
1430533006.920278072 -3.921517388 0.129654300 -0.156701121 -10.518421056 -5.239508244 -9.362672761
1430533006.930278063 -3.706095541 0.140851971 -0.145986485 -9.844743799 -0.107601049 -6.039961737
1430533006.940278292 -3.633242665 0.145880410 -0.132081887 -9.248659249 4.347371151 -2.683915123
1430533006.950278044 -3.694155537 0.149135072 -0.116198946 -8.727601278 7.918953534 0.436139996
1430533006.960278034 -3.854370291 0.149102777 -0.106159578 -8.341713826 10.574590561 3.175282761
1430533006.970278263 -4.087487086 0.143730691 -0.094064058 -8.075337589 12.445340901 5.512335400
1430533006.980278254 -4.377246677 0.136921706 -0.086284655 -7.850474059 13.406127722 7.324812368
1430533006.990278244 -4.685135190 0.128980782 -0.076381196 -7.730396503 13.718553285 8.612478157
1430533007.000277996 -4.997810348 0.117734962 -0.071445432 -7.641184654 13.236527999 9.208874425
1430533007.010278225 -5.287581392 0.103820344 -0.069400271 -7.707259843 12.333422119 9.106902303
1430533007.020278215 -5.524776844 0.089823142 -0.066228049 -7.820249539 10.873097963 8.088282410
1430533007.030278206 -5.682414989 0.077668235 -0.066292562 -7.967815702 9.219700431 6.305031068
1430533007.040277958 -5.757221129 0.068388041 -0.064448015 -8.137822986 7.684949719 4.314412150
1430533007.050278187 -5.756302097 0.056780951 -0.069662434 -8.283724437 6.439422986 2.433439603
1430533007.060278177 -5.695285930 0.046984107 -0.070463301 -8.455276609 5.527478385 0.713885083
1430533007.070278168 -5.593518647 0.039043135 -0.072474231 -8.590770363 4.814048603 -0.891094493
1430533007.080277920 -5.463572079 0.028317733 -0.072690018 -8.732621702 4.238204360 -2.259356987
1430533007.090278149 -5.319050280 0.018696529 -0.073798593 -8.872665623 3.825923903 -3.377505983
1430533007.100278378 -5.177766827 0.011572580 -0.077331689 -8.977662490 3.484361454 -4.351851329
1430533007.110278130 -5.052699707 0.001765853 -0.077926258 -9.092908368 3.278166432 -5.125369359
1430533007.120278120 -4.961441346 -0.003199165 -0.081390366 -9.214288191 2.993727032 -5.634973215
1430533007.130278111 -4.920673544 -0.013702623 -0.081571947 -9.335631097 2.776990726 -5.943373493
1430533007.140278339 -4.931865742 -0.024220252 -0.083718160 -9.420499647 2.602677649 -6.110536897
1430533007.150278091 -4.986753088 -0.027852308 -0.083868708 -9.489640762 2.569859664 -6.094128415
1430533007.160278082 -5.080295462 -0.037872856 -0.084935558 -9.483680280 2.652709141 -5.941088395
1430533007.170278072 -5.193675013 -0.048213442 -0.086374609 -9.552152415 2.842967294 -5.600176248
1430533007.180278301 -5.318348380 -0.054636315 -0.088193839 -9.524530296 3.136715636 -5.110940043
1430533007.190278053 -5.437066690 -0.059668271 -0.093096601 -9.474985819 3.416821425 -4.364064352
1430533007.200278044 -5.546672362 -0.066251219 -0.093899329 -9.396416234 3.758981094 -3.416932614
1430533007.210278034 -5.635838934 -0.068193172 -0.097051561 -9.333721023 3.953184993 -2.273892088
1430533007.220278263 -5.685298398 -0.070324893 -0.099084497 -9.223357202 4.139804544 -0.835784154
1430533007.230278254 -5.690917718 -0.073608314 -0.105908191 -9.092127114 4.187605661 0.726408006
1430533007.240278006 -5.640233285 -0.068920923 -0.112752025 -8.968728839 4.065607239 2.169030881
1430533007.250278234 -5.556077111 -0.064071583 -0.118250927 -8.826341598 3.764878310 3.322691532
1430533007.260278225 -5.439173220 -0.057583071 -0.124069159 -8.810820243 3.371061801 4.155803642
1430533007.270278215 -5.303033850 -0.048460165 -0.129786710 -8.775041295 2.875781881 4.696635200
1430533007.280277967 -5.164623721 -0.041716266 -0.130695812 -8.735948381 2.389879769 4.866427915
1430533007.290278196 -5.033658855 -0.033217417 -0.135515966 -8.750497385 1.925358773 4.778440977
1430533007.300278187 -4.920828603 -0.022548115 -0.133732466 -8.800146998 1.532509358 4.336469247
1430533007.310278177 -4.841462330 -0.013211056 -0.130753588 -8.835946074 1.215462429 3.647949240
1430533007.320277929 -4.802567294 -0.010485272 -0.124661146 -8.937345098 1.102372341 2.633156083
1430533007.330278158 -4.819526230 -0.007993496 -0.114063877 -9.082335344 1.131574932 1.417402797
1430533007.340278387 -4.898560993 -0.005657002 -0.105910299 -9.228354317 1.340062634 0.268056881
1430533007.350278139 -5.022994456 -0.006199576 -0.089300031 -9.288007017 1.492979120 -0.480194490
1430533007.360278130 -5.173525643 -0.007083393 -0.075761593 -9.350572968 1.658026279 -0.891648610
1430533007.370278120 -5.333858992 -0.009216805 -0.056475498 -9.362691701 1.723627607 -1.014698126
1430533007.380278349 -5.494536443 -0.008773839 -0.042959772 -9.274630186 1.673382397 -0.875363135
1430533007.390278101 -5.632142706 -0.010876713 -0.028403398 -9.236889298 1.444758762 -0.384511426
1430533007.400278091 -5.739735911 -0.008446179 -0.014188849 -9.130487360 0.995458057 0.290383947
1430533007.410278082 -5.789670270 -0.001801486 -0.008604425 -8.966727882 0.316635657 1.219443585
1430533007.420278311 -5.769982878 0.014179482 -0.006619599 -8.802186589 -0.710397599 2.314992615
1430533007.430278063 -5.663794327 0.029119783 -0.005875444 -8.634884891 -2.020401623 3.518801188
1430533007.440278053 -5.466808018 0.055950231 -0.014908718 -8.439410516 -3.336165961 4.476834651
1430533007.450278044 -5.200042213 0.085455638 -0.021270847 -8.345989462 -4.498837881 5.004748008
1430533007.460278273 -4.891165977 0.119600903 -0.035280085 -8.283498401 -5.402650507 5.176356221
1430533007.470278263 -4.555173287 0.151124699 -0.049233153 -8.330810194 -5.982321448 5.082226260
1430533007.480278015 -4.223737965 0.184664856 -0.065695686 -8.414133353 -6.169511095 4.725129295
1430533007.490278244 -3.914523784 0.212600495 -0.077839873 -8.528818172 -6.040662467 4.204562203
1430533007.500278234 -3.660423236 0.232917378 -0.090324859 -8.776219278 -5.433009720 3.489840061
1430533007.510278225 -3.477948725 0.242751906 -0.098963194 -9.084726272 -4.484753774 2.658159665
1430533007.520277977 -3.395832756 0.241500636 -0.105434168 -9.461367379 -3.126446676 1.703818171
1430533007.530278206 -3.437468370 0.228783422 -0.111505958 -9.847855277 -1.312039017 0.705465120
1430533007.540278196 -3.609184380 0.195214818 -0.115871833 -10.215806550 0.434909873 -0.081892504
1430533007.550278187 -3.898176252 0.150610501 -0.122317789 -10.516787477 1.886184322 -0.636994473
1430533007.560277939 -4.269820909 0.095944314 -0.125661224 -10.754349292 2.959948359 -0.975446569
1430533007.570278168 -4.698247085 0.035468371 -0.130904439 -10.846451794 3.677828345 -1.092162304
1430533007.580278158 -5.153853999 -0.027522541 -0.138891673 -10.938038396 4.021498511 -1.056768453
1430533007.590278149 -5.621934061 -0.095415899 -0.143908428 -10.925284970 4.042712439 -0.875429690
1430533007.600277901 -6.060152477 -0.151663490 -0.152602210 -10.832359005 3.618936176 -0.701089878
1430533007.610278130 -6.445589985 -0.204965274 -0.158142802 -10.600868554 2.820924861 -0.533380226
1430533007.620278358 -6.760399944 -0.247422293 -0.173148160 -10.303893301 1.568682079 -0.451707852
1430533007.630278111 -6.961493998 -0.277805202 -0.178170651 -9.924484996 -0.029695783 -0.635159173
1430533007.640278101 -7.044144022 -0.289794752 -0.181454224 -9.576324794 -1.561561581 -0.954709508
1430533007.650278091 -7.028029509 -0.285185525 -0.192873667 -9.198538126 -2.794981755 -1.377447023
1430533007.660278320 -6.914467030 -0.269475109 -0.189280265 -8.920625519 -3.828313818 -1.811287928
1430533007.670278072 -6.738224540 -0.239556162 -0.185985044 -8.725153482 -4.497809527 -2.256226551
1430533007.680278063 -6.505372214 -0.211291327 -0.176883516 -8.534730695 -5.028634421 -2.636474778
1430533007.690278053 -6.246246913 -0.165634010 -0.162043001 -8.424805495 -5.217095107 -2.877796322
1430533007.700278282 -5.974813020 -0.123721589 -0.152240267 -8.340631734 -5.305865520 -2.986410204
1430533007.710278034 -5.703220616 -0.080515522 -0.137617729 -8.328564585 -5.217603258 -2.868708100
1430533007.720278025 -5.461054174 -0.046003277 -0.119199453 -8.356367573 -5.036999288 -2.523188658
1430533007.730278254 -5.259435816 -0.003764017 -0.102076474 -8.443779963 -4.757322691 -1.940812711
1430533007.740278244 -5.116188113 0.020798546 -0.084619649 -8.583623229 -4.536805404 -1.359786983
1430533007.750278234 -5.021472366 0.043995545 -0.069087062 -8.661211692 -4.323731441 -0.909501538
1430533007.760277987 -4.974663334 0.066191052 -0.060812992 -8.760095112 -4.177821364 -0.635243985
1430533007.770278215 -4.962778715 0.077873469 -0.048719298 -8.875241379 -4.137022889 -0.449614683
1430533007.780278206 -4.980514186 0.091247510 -0.041668300 -8.929556519 -3.992810961 -0.456792637
1430533007.790278196 -5.020769075 0.097062439 -0.039890533 -8.989912262 -3.918861305 -0.593136158
1430533007.800277948 -5.073926345 0.102085578 -0.033898828 -9.074425601 -3.757285372 -0.840473640
1430533007.810278177 -5.136532833 0.102026800 -0.037222298 -9.135369590 -3.502539249 -1.285771651
1430533007.820278168 -5.201227220 0.103763225 -0.043754856 -9.195242366 -3.192378641 -1.722125739
1430533007.830278158 -5.249269551 0.096092474 -0.042584396 -9.184528466 -2.777135294 -2.445804160
1430533007.840277910 -5.291684953 0.087302806 -0.048998972 -9.233208449 -2.309092960 -3.074869229
1430533007.850278139 -5.320185331 0.084918285 -0.054118892 -9.279963855 -1.888269592 -3.574999476
1430533007.860278368 -5.333244779 0.076481487 -0.064109554 -9.255793806 -1.508734757 -4.009380910
1430533007.870278120 -5.344507150 0.068920664 -0.072622387 -9.243700923 -1.256532365 -4.361898051
1430533007.880278111 -5.344607198 0.058144653 -0.079234678 -9.211103300 -1.052632793 -4.607341550
1430533007.890278101 -5.342370763 0.048265259 -0.082000191 -9.160552972 -0.940930509 -4.840012954
1430533007.900278330 -5.328035433 0.033708975 -0.090695860 -9.078144556 -0.919632353 -4.977624055
1430533007.910278082 -5.317311980 0.021769652 -0.097134869 -8.969962554 -0.976902762 -5.101387081
1430533007.920278072 -5.305540229 0.011926695 -0.099448707 -8.871720325 -1.139467271 -5.250779493
1430533007.930278063 -5.290162091 -0.000014102 -0.108017429 -8.761544814 -1.444709448 -5.418301040
1430533007.940278292 -5.284297373 -0.015066071 -0.109055778 -8.665045162 -1.711149235 -5.508988622
1430533007.950278044 -5.272730321 -0.024270402 -0.106047454 -8.625456474 -1.832782166 -5.652874174
1430533007.960278034 -5.266334941 -0.036310736 -0.109100955 -8.529314731 -1.819452372 -5.769464289
1430533007.970278263 -5.264456938 -0.047376056 -0.109291784 -8.563805859 -1.677241122 -5.751282445
1430533007.980278254 -5.259668726 -0.052640350 -0.104487790 -8.548786447 -1.389158385 -5.703357738
1430533007.990278244 -5.256775735 -0.060491174 -0.100930113 -8.601998836 -1.075657055 -5.577217096
1430533008.000277996 -5.258796090 -0.066294104 -0.103638942 -8.716550337 -0.562958926 -5.285583729
1430533008.010278225 -5.256068909 -0.068759845 -0.101040731 -8.855537599 -0.088181694 -4.854216251
1430533008.020278215 -5.256903501 -0.071641301 -0.103023537 -9.021945416 0.505599225 -4.317385763
1430533008.030278206 -5.256181383 -0.071251290 -0.100848729 -9.149128007 1.144521117 -3.606982438
1430533008.040277958 -5.255865976 -0.063273363 -0.101554834 -9.358972721 1.663124215 -2.898856760
1430533008.050278187 -5.257752280 -0.055425801 -0.104722780 -9.525517784 2.025100761 -2.290532355
1430533008.060278177 -5.258911511 -0.044054089 -0.111021799 -9.656558673 2.279504766 -1.770391476
1430533008.070278168 -5.261972815 -0.035944192 -0.115325732 -9.748346271 2.462981439 -1.397014418
1430533008.080277920 -5.265250591 -0.017452292 -0.114997645 -9.804266688 2.500409248 -1.213388666
1430533008.090278149 -5.271332390 -0.006084062 -0.118749663 -9.835114829 2.499969511 -1.220406261
1430533008.100278378 -5.278444075 0.006560953 -0.122616271 -9.779376437 2.458214678 -1.346071578
1430533008.110278130 -5.293128264 0.025808271 -0.123852752 -9.762449064 2.408556791 -1.622710443
1430533008.120278120 -5.305885026 0.036062582 -0.122406160 -9.683748909 2.457406304 -2.125381623
1430533008.130278111 -5.326502903 0.047365107 -0.119047806 -9.564622699 2.506492038 -2.763389990
1430533008.140278339 -5.347990344 0.058438485 -0.116680938 -9.479285668 2.634079280 -3.426385103
1430533008.150278091 -5.374058771 0.065166039 -0.110155307 -9.328402013 2.852736332 -3.934812132
1430533008.160278082 -5.400260746 0.069357085 -0.107741180 -9.254608254 3.097033900 -4.256503300
1430533008.170278072 -5.424950737 0.068912217 -0.099087422 -9.177598369 3.347001474 -4.416602618
1430533008.180278301 -5.449428496 0.074768284 -0.094442394 -9.092577832 3.613137596 -4.435161151
1430533008.190278053 -5.469847065 0.071414149 -0.089438153 -9.081761953 3.865199566 -4.247377603
1430533008.200278044 -5.487801361 0.067535103 -0.084189671 -9.061058446 4.063493132 -3.922458002
1430533008.210278034 -5.495156878 0.067178450 -0.077420814 -8.992973482 4.126609144 -3.451389364
1430533008.220278263 -5.491836504 0.059166694 -0.070268023 -8.963807823 4.134843180 -2.817116222
1430533008.230278254 -5.480913066 0.047622557 -0.067453304 -8.982520319 3.950507256 -2.107391568
1430533008.240278006 -5.459282377 0.040859937 -0.063311206 -8.963891268 3.752603054 -1.390273854
1430533008.250278234 -5.429800240 0.032372709 -0.056568748 -9.028529514 3.452680296 -0.849618227
1430533008.260278225 -5.388179836 0.020090349 -0.057096439 -9.050017537 3.215678597 -0.476281501
1430533008.270278215 -5.345045986 0.014182352 -0.049221267 -9.038706635 2.971889767 -0.182712993
1430533008.280277967 -5.302260416 0.000314199 -0.048041480 -9.063662353 2.801735652 -0.069735849
1430533008.290278196 -5.258656115 -0.006813955 -0.047683386 -9.091465674 2.655113734 -0.148349085
1430533008.300278187 -5.218276729 -0.018086686 -0.050513172 -9.044572111 2.572869465 -0.275187494
1430533008.310278177 -5.185128614 -0.031109292 -0.053381951 -9.067196985 2.591721083 -0.546438509
1430533008.320277929 -5.160826064 -0.035663663 -0.062281493 -9.148923539 2.766507571 -0.886779166
1430533008.330278158 -5.148488740 -0.045334166 -0.071843291 -9.157551730 3.062226916 -1.337895825
1430533008.340278387 -5.144563565 -0.051889419 -0.077070916 -9.107645489 3.402945671 -1.743289967
1430533008.350278139 -5.153336074 -0.052574423 -0.088413874 -9.108851049 3.748218438 -2.007171282
1430533008.360278130 -5.176890596 -0.060380357 -0.100808418 -9.128237659 4.073543126 -2.079621918
1430533008.370278120 -5.203902735 -0.063699720 -0.116082590 -9.163030861 4.371284336 -1.988562454
1430533008.380278349 -5.234905214 -0.065898496 -0.127739478 -9.175768246 4.541810018 -1.714750728
1430533008.390278101 -5.271763762 -0.068302714 -0.135310506 -9.147588349 4.672180420 -1.355982457
1430533008.400278091 -5.304186419 -0.064956398 -0.148009200 -9.077399057 4.627747869 -0.847678822
1430533008.410278082 -5.340663351 -0.070109646 -0.150783616 -9.082504349 4.504057429 -0.297167797
1430533008.420278311 -5.363119300 -0.066780946 -0.158616949 -9.017826372 4.189496409 0.433611464
1430533008.430278063 -5.391339380 -0.061896235 -0.156706301 -8.971641084 3.730748637 1.157673926
1430533008.440278053 -5.405595576 -0.063072155 -0.149223414 -8.928443638 3.216750597 1.866745109
1430533008.450278044 -5.411714559 -0.064273174 -0.142228591 -8.870888900 2.673496606 2.351353756
1430533008.460278273 -5.412676104 -0.058755004 -0.130474708 -8.853905099 2.181241261 2.762461346
1430533008.470278263 -5.406124933 -0.056120294 -0.117141634 -8.790331242 1.721145379 2.952455950
1430533008.480278015 -5.393915888 -0.052711712 -0.103278762 -8.769388278 1.454687839 3.144255876
1430533008.490278244 -5.374018970 -0.051672367 -0.085827829 -8.803527487 1.208426785 3.125932763
1430533008.500278234 -5.352080010 -0.045531296 -0.071899072 -8.808211167 1.046331907 2.964479718
1430533008.510278225 -5.327227253 -0.037682597 -0.060460161 -8.832014221 1.066360706 2.782464699
1430533008.520277977 -5.301751254 -0.029947512 -0.049904198 -8.837505097 1.231778656 2.592236012
1430533008.530278206 -5.271381907 -0.018024812 -0.042778824 -8.904498576 1.499507468 2.323790916
1430533008.540278196 -5.243373360 -0.002743108 -0.041079775 -8.996166198 1.899883999 2.030702439
1430533008.550278187 -5.213123769 0.015407410 -0.039763402 -8.991857202 2.165791593 1.882380643
1430533008.560277939 -5.187671604 0.035008564 -0.044800549 -9.087628458 2.329819270 1.765937174
1430533008.570278168 -5.156656925 0.050078631 -0.049814049 -9.090851219 2.382304133 1.735399144
1430533008.580278158 -5.132362004 0.069469124 -0.048294277 -9.129661239 2.321920851 1.768836948
1430533008.590278149 -5.107923072 0.083965715 -0.057855652 -9.198816491 2.191945671 1.782737387
1430533008.600277901 -5.087273603 0.095221661 -0.063220967 -9.179403860 1.874370218 1.776183055
1430533008.610278130 -5.077411344 0.105108158 -0.065465985 -9.231348085 1.497638492 1.787356034
1430533008.620278358 -5.066660910 0.109746323 -0.065203711 -9.235849963 0.945086005 1.768423705
1430533008.630278111 -5.064189109 0.102920985 -0.062046896 -9.232686907 0.323594165 1.636878981
1430533008.640278101 -5.069812163 0.086072228 -0.057549165 -9.293633343 -0.349030068 1.542538288
1430533008.650278091 -5.078466342 0.067908167 -0.053171501 -9.288886723 -1.039815415 1.372612439
1430533008.660278320 -5.096372701 0.046647616 -0.041229779 -9.315912539 -1.492740596 1.226025285
1430533008.670278072 -5.112568830 0.013117497 -0.035636689 -9.357355915 -1.942604559 1.043419508
1430533008.680278063 -5.139591217 -0.015855279 -0.025407801 -9.362682445 -2.314638394 0.895170524
1430533008.690278053 -5.162137459 -0.047191746 -0.020070262 -9.418130760 -2.629973314 0.806666170
1430533008.700278282 -5.187089838 -0.070642466 -0.012145202 -9.467798380 -2.888084421 0.734851737
1430533008.710278034 -5.213472766 -0.091401160 -0.010254312 -9.521224955 -3.090205269 0.681626771
1430533008.720278025 -5.240816383 -0.102342166 -0.012197973 -9.564074198 -3.266174110 0.675680102
1430533008.730278254 -5.264833373 -0.104261659 -0.018456673 -9.644450952 -3.381047662 0.785182482
1430533008.740278244 -5.287222239 -0.096288811 -0.020707410 -9.760472366 -3.470030465 0.820820916
1430533008.750278234 -5.303549031 -0.077585552 -0.029936629 -9.752232952 -3.520678657 0.827289180
1430533008.760277987 -5.318065534 -0.051352950 -0.035926281 -9.758748133 -3.450026867 0.843246522
1430533008.770278215 -5.328708121 -0.019200593 -0.045718776 -9.735853356 -3.323686354 0.718064991
1430533008.780278206 -5.340542568 0.015527077 -0.058076248 -9.675427722 -3.069925971 0.676197491
1430533008.790278196 -5.349432935 0.041237375 -0.069231618 -9.568981837 -2.749857969 0.547687647
1430533008.800277948 -5.357695443 0.068103878 -0.076816163 -9.491449061 -2.329276257 0.449268348
1430533008.810278177 -5.362438925 0.080684795 -0.086759138 -9.294111714 -1.719660499 0.404885658
1430533008.820278168 -5.362013771 0.084994528 -0.092415211 -9.097976345 -1.155614394 0.387397260
1430533008.830278158 -5.367624633 0.072254029 -0.102600918 -8.875665295 -0.452652758 0.393526411
1430533008.840277910 -5.365358227 0.042847957 -0.116144090 -8.630069683 0.244370252 0.509755538
1430533008.850278139 -5.365268427 -0.003146715 -0.128343776 -8.563578358 0.652481279 0.588470858
1430533008.860278368 -5.362881172 -0.051002902 -0.141772730 -8.521267581 0.692206873 0.584785849
1430533008.870278120 -5.357419462 -0.106666555 -0.155553523 -8.511190009 0.549535578 0.552366515
1430533008.880278111 -5.358079067 -0.159166924 -0.168466734 -8.579997842 0.101620416 0.297305599
1430533008.890278101 -5.354314347 -0.199310394 -0.176122269 -8.744500178 -0.545372252 -0.092238201
1430533008.900278330 -5.349682573 -0.226461335 -0.176123983 -9.005196489 -1.414067050 -0.687342258
1430533008.910278082 -5.340999863 -0.229788784 -0.183134745 -9.352626863 -2.481705230 -1.518831314
1430533008.920278072 -5.336527218 -0.214135500 -0.173058116 -9.723524440 -3.633030112 -2.689490657
1430533008.930278063 -5.328870362 -0.168501186 -0.152338563 -10.169392224 -4.929114454 -4.189088745
1430533008.940278292 -5.317322102 -0.079531204 -0.121699580 -10.607271859 -6.002978527 -5.801489784
1430533008.950278044 -5.312075177 0.034106157 -0.075076683 -10.914283824 -6.732234354 -7.130868570
1430533008.960278034 -5.304523837 0.166610481 -0.021114769 -11.093533078 -6.984728535 -8.146771507
1430533008.970278263 -5.296911553 0.307852216 0.035512443 -11.109305817 -6.946871985 -8.825742059
1430533008.980278254 -5.286280161 0.452150505 0.098297064 -10.949025247 -6.520652975 -8.991378457
1430533008.990278244 -5.278982517 0.585747835 0.155937259 -10.686092275 -5.951045667 -8.715122046
1430533009.000277996 -5.276488244 0.693879533 0.210565915 -10.250534615 -5.194771547 -7.919630184
1430533009.010278225 -5.270394754 0.776244066 0.251631834 -9.668589817 -4.409037305 -6.587313977
1430533009.020278215 -5.262537280 0.816374802 0.275241613 -9.063763226 -3.637636421 -4.710173051
1430533009.030278206 -5.263423063 0.815034115 0.284113985 -8.297635422 -3.002695720 -2.229149262
1430533009.040277958 -5.263189922 0.761379368 0.251258343 -7.565607062 -2.572924765 0.459898945
1430533009.050278187 -5.268103889 0.655731559 0.193850954 -6.998930733 -2.513222954 2.603848703
1430533009.060278177 -5.272263013 0.521504324 0.110004087 -6.614234467 -2.689882462 4.240341332
1430533009.070278168 -5.275060831 0.359325157 0.006226679 -6.376162767 -2.987196043 5.224241375
1430533009.080277920 -5.278304718 0.186716042 -0.111461188 -6.304461630 -3.366107730 5.629959569
1430533009.090278149 -5.279300689 0.013559240 -0.234436056 -6.336226707 -3.669818127 5.443628440
1430533009.100278378 -5.278498219 -0.152727393 -0.364068054 -6.460771768 -3.916994007 4.608389687
1430533009.110278130 -5.275912702 -0.294447320 -0.485406244 -6.796675858 -3.888975625 3.245326094
1430533009.120278120 -5.277361038 -0.409050684 -0.592945021 -7.188516174 -3.574445283 1.339284330
1430533009.130278111 -5.271227681 -0.486022692 -0.675601074 -7.845166031 -2.912545302 -1.041015269
1430533009.140278339 -5.264717725 -0.526681963 -0.723344232 -8.544961814 -1.851643468 -3.569072627
1430533009.150278091 -5.255984082 -0.524218581 -0.728493694 -9.236474580 -0.672627576 -5.627991515
1430533009.160278082 -5.247036780 -0.496283337 -0.704543923 -9.761379065 0.504106812 -7.195648371
1430533009.170278072 -5.240502457 -0.443835842 -0.658772130 -10.229677811 1.644600712 -8.248836078
1430533009.180278301 -5.230565765 -0.381195210 -0.584270669 -10.646928683 2.748045332 -8.856257179
1430533009.190278053 -5.227678537 -0.311598115 -0.492711110 -10.932232051 3.621276537 -9.095563502
1430533009.200278044 -5.221882350 -0.235989766 -0.392986676 -11.113982501 4.350299649 -8.872520410
1430533009.210278034 -5.218751060 -0.170288614 -0.285615939 -11.131373636 4.765793311 -8.320975032
1430533009.220278263 -5.221058668 -0.115245795 -0.187574291 -11.047133749 4.941414467 -7.431343294
1430533009.230278254 -5.224852884 -0.071750523 -0.099101283 -10.782975348 4.754348570 -6.306334014
1430533009.240278006 -5.235911238 -0.037975476 -0.025921566 -10.430994720 4.277865919 -5.114809569
1430533009.250278234 -5.250006690 -0.019625356 0.023017876 -10.178746751 3.694296340 -4.038771012
1430533009.260278225 -5.267744451 -0.006188632 0.053451311 -9.900664520 3.191887365 -3.240865687
1430533009.270278215 -5.294097758 0.003023829 0.069846721 -9.693960096 2.708629332 -2.600986864
1430533009.280277967 -5.314193451 0.001786040 0.067600648 -9.508073755 2.272341269 -2.206179418
1430533009.290278196 -5.335740015 -0.001382281 0.057536561 -9.369492394 1.928796275 -1.967021758
1430533009.300278187 -5.361605352 -0.000288089 0.040347851 -9.243156099 1.689653047 -1.850542239
1430533009.310278177 -5.383767115 0.000286617 0.013306333 -9.174958738 1.502696686 -1.939263279
1430533009.320277929 -5.404955788 0.004808856 -0.011712107 -9.216190722 1.560849791 -2.142944713
1430533009.330278158 -5.419981710 0.009892985 -0.028139232 -9.190706243 1.699647157 -2.378284369
1430533009.340278387 -5.435301551 0.018580137 -0.053609139 -9.237594721 1.998811236 -2.703156772
1430533009.350278139 -5.444637997 0.027363175 -0.065074809 -9.273971338 2.315835964 -2.986574695
1430533009.360278130 -5.446486029 0.036509297 -0.077926993 -9.298013324 2.692632622 -3.064322176
1430533009.370278120 -5.452459709 0.044115192 -0.085666646 -9.313783673 2.991142940 -3.168354519
1430533009.380278349 -5.447317897 0.051817700 -0.087295987 -9.315509935 3.319873194 -3.118510882
1430533009.390278101 -5.443683253 0.059481263 -0.089799386 -9.257189974 3.593623047 -3.027638908
1430533009.400278091 -5.437060749 0.059434581 -0.087733709 -9.226807775 3.760438830 -2.889202603
1430533009.410278082 -5.416264327 0.065441001 -0.081914045 -9.184289220 3.957451434 -2.641763032
1430533009.420278311 -5.396792168 0.061927677 -0.081185430 -9.101041923 4.082968346 -2.346248006
1430533009.430278063 -5.377711497 0.054911309 -0.077997527 -9.027572518 4.084611477 -1.992652981
1430533009.440278053 -5.350066638 0.043593826 -0.070889666 -8.909553732 4.033182797 -1.648109792
1430533009.450278044 -5.320165463 0.031300868 -0.064808420 -8.837554742 4.054084018 -1.347568943
1430533009.460278273 -5.292479487 0.014925289 -0.063704706 -8.821106253 3.940029876 -1.122780296
1430533009.470278263 -5.263242225 -0.002349622 -0.058972769 -8.788869780 3.853855693 -0.985669883
1430533009.480278015 -5.235157131 -0.019863279 -0.060802340 -8.822526817 3.754511945 -0.858676657
1430533009.490278244 -5.204674141 -0.040119838 -0.061761166 -8.821825068 3.669239703 -0.812328921
1430533009.500278234 -5.185525067 -0.058513455 -0.061836399 -8.920011099 3.600572813 -0.871010593
1430533009.510278225 -5.169953863 -0.072071972 -0.062830090 -8.977002833 3.489774969 -0.964700239
1430533009.520277977 -5.158429173 -0.085294008 -0.065024810 -9.075671254 3.494654874 -1.116063484
1430533009.530278206 -5.165064930 -0.095329151 -0.076549598 -9.253299337 3.563910890 -1.312234977
1430533009.540278196 -5.174162571 -0.102558619 -0.080201442 -9.334645276 3.592289402 -1.542744555
1430533009.550278187 -5.196227848 -0.109607221 -0.090091559 -9.440712904 3.673258809 -1.684190440
1430533009.560277939 -5.221534195 -0.110635976 -0.095951730 -9.494706511 3.780703230 -1.751782909
1430533009.570278168 -5.251533406 -0.108880015 -0.109546817 -9.561666151 3.899303076 -1.680422602
1430533009.580278158 -5.285801321 -0.106641949 -0.115846125 -9.530092448 3.976524766 -1.535784032
1430533009.590278149 -5.320828046 -0.100966197 -0.122363230 -9.523343164 4.088475559 -1.301389946
1430533009.600277901 -5.348522748 -0.092688131 -0.127883846 -9.448222045 4.101455091 -0.952622550
1430533009.610278130 -5.375446227 -0.085778304 -0.129740270 -9.354350347 4.077905712 -0.576110299
1430533009.620278358 -5.393474116 -0.076253693 -0.127911609 -9.233336065 3.970904140 -0.024321118
1430533009.630278111 -5.399957394 -0.064872811 -0.124166327 -9.015525095 3.826294080 0.512281406
1430533009.640278101 -5.398418787 -0.056213929 -0.116158828 -8.897732578 3.575885386 1.112099228
1430533009.650278091 -5.381740171 -0.046522255 -0.108680235 -8.752440915 3.301705573 1.640476625
1430533009.660278320 -5.358049893 -0.040028331 -0.098722416 -8.610898015 2.966196784 2.027605709
1430533009.670278072 -5.329124552 -0.029882117 -0.084146693 -8.549929888 2.628955404 2.370346836
1430533009.680278063 -5.297172967 -0.020827638 -0.069709097 -8.431418930 2.356486109 2.581617920
1430533009.690278053 -5.264413460 -0.007146819 -0.057300048 -8.462909966 1.992134417 2.749251178
1430533009.700278282 -5.232097541 -0.002231472 -0.046420989 -8.537626290 1.682422700 2.813996508
1430533009.710278034 -5.203686291 0.007418851 -0.033824148 -8.578539060 1.376036323 2.832361975
1430533009.720278025 -5.185916992 0.017123269 -0.021431356 -8.640708848 1.189419549 2.727912180
1430533009.730278254 -5.176396124 0.024332705 -0.016448986 -8.768721654 1.012282492 2.599696931
1430533009.740278244 -5.173666836 0.036634853 -0.014163215 -8.979573047 0.850194128 2.420978204
1430533009.750278234 -5.189900531 0.048704844 -0.012090295 -9.101254080 0.696020323 2.244108363
1430533009.760277987 -5.210204055 0.058736396 -0.012475622 -9.222856555 0.577653367 2.086895424
1430533009.770278215 -5.238424217 0.069399936 -0.015335217 -9.283837724 0.458404560 1.977372172
1430533009.780278206 -5.262360266 0.078215217 -0.025684084 -9.430827348 0.307430200 1.795714007
1430533009.790278196 -5.283160439 0.085243631 -0.027938513 -9.467298860 0.170295849 1.778252862
1430533009.800277948 -5.301505947 0.090064066 -0.034847032 -9.466848756 -0.038364535 1.655214482
1430533009.810278177 -5.301476473 0.091652822 -0.042142471 -9.417395331 -0.190384519 1.604210135
1430533009.820278168 -5.292436888 0.092470485 -0.046652797 -9.405209988 -0.399267834 1.527860214
1430533009.830278158 -5.268650508 0.080205997 -0.050123140 -9.367929417 -0.645985139 1.454435704
1430533009.840277910 -5.221328570 0.075725849 -0.049450132 -9.351841929 -0.843442904 1.439464304
1430533009.850278139 -5.157426978 0.056495132 -0.051393571 -9.238039712 -1.146250824 1.355102364
1430533009.860278368 -5.083804218 0.039824190 -0.048367103 -9.174727656 -1.352271679 1.337618589
1430533009.870278120 -5.009612054 0.023101896 -0.047023625 -9.129822818 -1.615753427 1.263740267
1430533009.880278111 -4.939816848 0.001632989 -0.045186089 -9.133689438 -1.840897017 1.180581403
1430533009.890278101 -4.890844369 -0.016531759 -0.040018361 -9.083364112 -2.085373177 1.040858523
1430533009.900278330 -4.863817719 -0.042317062 -0.040808800 -9.087963972 -2.315742734 0.906593869
1430533009.910278082 -4.864064381 -0.054092874 -0.040606181 -9.116312981 -2.555263560 0.873402357
1430533009.920278072 -4.910272844 -0.061157544 -0.044125342 -9.101283304 -2.810403779 0.746423648
1430533009.930278063 -5.005086380 -0.064671587 -0.045385667 -9.097453110 -3.046494338 0.638606892
1430533009.940278292 -5.152753614 -0.060343005 -0.048519642 -9.176150062 -3.262137729 0.455517263
1430533009.950278044 -5.352242174 -0.046387425 -0.055900836 -9.193944717 -3.400005192 0.307439943
1430533009.960278034 -5.573142990 -0.030071055 -0.060659225 -9.248371495 -3.402427987 0.153195641
1430533009.970278263 -5.798333621 -0.003554368 -0.071211441 -9.285967075 -3.335363730 0.007880115
1430533009.980278254 -6.010292709 0.020167370 -0.077650619 -9.370346295 -3.179460203 -0.109889178
1430533009.990278244 -6.182032904 0.040295532 -0.086577170 -9.431318600 -2.893010953 -0.216340163
1430533010.000277996 -6.295300640 0.057745401 -0.093079828 -9.507523435 -2.580389223 -0.225116651
1430533010.010278225 -6.326842744 0.066922220 -0.100792389 -9.591344387 -2.209064791 -0.122745006
1430533010.020278215 -6.256707408 0.071021394 -0.105988920 -9.661993129 -1.756866713 0.057507267
1430533010.030278206 -6.066833219 0.059104115 -0.118696415 -9.784712261 -1.213209357 0.355721646
1430533010.040277958 -5.730749594 0.033717738 -0.127109509 -9.906160832 -0.663931595 0.706201763
1430533010.050278187 -5.272464566 0.001191037 -0.140032310 -9.951047793 -0.446161233 0.974171235
1430533010.060278177 -4.740412673 -0.041380326 -0.150081203 -9.978364454 -0.413051019 1.099323940
1430533010.070278168 -4.186173826 -0.086783928 -0.163415774 -9.890885451 -0.506440653 1.013349725
1430533010.080277920 -3.672525639 -0.131671689 -0.167434697 -9.802505160 -0.850378038 0.740582304
1430533010.090278149 -3.242938853 -0.167041272 -0.178811309 -9.651190058 -1.265288409 0.252721421
1430533010.100278378 -2.945129110 -0.193951240 -0.176742099 -9.410960089 -1.817862747 -0.512553969
1430533010.110278130 -2.839510150 -0.203704716 -0.175300844 -9.143129550 -2.458337728 -1.470403609
1430533010.120278120 -2.975346228 -0.190541509 -0.166917154 -8.766755600 -3.219270298 -2.801745262
1430533010.130278111 -3.400985700 -0.155692874 -0.147498986 -8.431658013 -3.997735762 -4.338335378
1430533010.140278339 -4.175397261 -0.093385730 -0.115101228 -8.013622581 -4.747970370 -6.162520986
1430533010.150278091 -5.258269014 -0.004211565 -0.075344965 -7.717952427 -5.160633397 -7.553697550
1430533010.160278082 -6.561401864 0.099698739 -0.018641410 -7.483186224 -5.222133831 -8.686687873
1430533010.170278072 -7.994397780 0.214173228 0.038286173 -7.341824829 -4.901045181 -9.468834755
1430533010.180278301 -9.452347247 0.335983656 0.102587286 -7.334143915 -4.321671749 -9.745935483
1430533010.190278053 -10.840421078 0.445988865 0.165667558 -7.390623406 -3.611417342 -9.602102412
1430533010.200278044 -12.062455882 0.545127673 0.228955737 -7.584665565 -2.855287575 -8.923642677
1430533010.210278034 -13.024584450 0.625104913 0.280658964 -7.901435224 -2.339945311 -7.792213226
1430533010.220278263 -13.630374802 0.672589500 0.312593999 -8.345150919 -2.349503638 -6.237815860
1430533010.230278254 -13.781871195 0.679905088 0.321800301 -8.937946268 -2.912973228 -4.465818675
1430533010.240278006 -13.385662280 0.650839031 0.295698818 -9.667581634 -4.289669168 -2.712126511
1430533010.250278234 -12.458197794 0.587170572 0.250599633 -10.283227204 -5.772848719 -1.675422041
1430533010.260278225 -11.102128743 0.493867848 0.166643309 -10.835621094 -7.038806938 -1.319889699
1430533010.270278215 -9.432679753 0.380091654 0.072252436 -11.172307847 -8.024767358 -1.433934272
1430533010.280277967 -7.558993519 0.257629000 -0.035376767 -11.434478141 -8.553290933 -1.767217614
1430533010.290278196 -5.589142686 0.137659607 -0.146108225 -11.472903052 -8.525049691 -2.138699125
1430533010.300278187 -3.638487343 0.023943658 -0.251360825 -11.436867917 -8.033694945 -2.502983262
1430533010.310278177 -1.821144835 -0.079693849 -0.352857264 -11.177226911 -6.982938203 -2.791279415
1430533010.320277929 -0.238159934 -0.159264723 -0.439831347 -10.808464785 -5.478007065 -3.005144533
1430533010.330278158 0.989181290 -0.214544402 -0.508479527 -10.328934246 -3.391555903 -3.211502608
1430533010.340278387 1.752514570 -0.243118180 -0.548579372 -9.731002338 -0.927985104 -3.545927947
1430533010.350278139 2.041339459 -0.257500397 -0.567667358 -9.193553947 1.202664527 -3.885030394
1430533010.360278130 1.922021545 -0.250023964 -0.559911734 -8.804466557 3.021401868 -4.286867465
1430533010.370278120 1.466853411 -0.226321254 -0.533738144 -8.493686445 4.411644926 -4.570554053
1430533010.380278349 0.745386239 -0.202757030 -0.492450057 -8.293276324 5.536148857 -4.852471810
1430533010.390278101 -0.170107734 -0.168840390 -0.437531874 -8.188531543 6.269919940 -4.978892603
1430533010.400278091 -1.188378999 -0.134814938 -0.371126352 -8.068776647 6.671557258 -4.978020168
1430533010.410278082 -2.257087366 -0.104334377 -0.303996165 -8.049386361 6.803519147 -4.712377967
1430533010.420278311 -3.291447160 -0.079712700 -0.233410376 -8.158148081 6.567295053 -4.426080070
1430533010.430278063 -4.220072523 -0.056916063 -0.171711432 -8.239006470 5.971970528 -4.040778818
1430533010.440278053 -4.972817285 -0.044449622 -0.119370201 -8.422013117 5.099199577 -3.535712102
1430533010.450278044 -5.526873687 -0.027326743 -0.080929910 -8.576517511 4.223602836 -3.140090218
1430533010.460278273 -5.894264331 -0.019024637 -0.057089775 -8.683816850 3.541363009 -2.852989138
1430533010.470278263 -6.111848934 -0.010024078 -0.043816569 -8.847828672 2.933695806 -2.725517966
1430533010.480278015 -6.200119827 -0.003778112 -0.041834280 -8.952084837 2.440872726 -2.617948817
1430533010.490278244 -6.189601263 0.009248820 -0.048917524 -9.076792375 2.118750493 -2.636403370
1430533010.500278234 -6.096102993 0.015129820 -0.052553049 -9.229469158 1.879017516 -2.753779747
1430533010.510278225 -5.951860692 0.028416267 -0.068182364 -9.321795702 1.856546243 -2.829886484
1430533010.520277977 -5.784715200 0.042422136 -0.078316696 -9.413282075 1.846858738 -2.917649061
1430533010.530278206 -5.613645757 0.051639913 -0.092588402 -9.495099187 2.088939721 -3.020470696
1430533010.540278196 -5.464853496 0.057981768 -0.096804805 -9.595620498 2.379335863 -3.042291523
1430533010.550278187 -5.352943219 0.064409422 -0.101735011 -9.696695052 2.717789459 -3.030175501
1430533010.560277939 -5.277301878 0.069318229 -0.100311569 -9.689876359 3.023586667 -2.991064897
1430533010.570278168 -5.224191365 0.066346892 -0.100243974 -9.708330519 3.246119863 -2.910173351
1430533010.580278158 -5.198649201 0.067564042 -0.093692383 -9.699184624 3.451853722 -2.780594100
1430533010.590278149 -5.189903482 0.065690059 -0.087864029 -9.647038823 3.677081910 -2.599782207
1430533010.600277901 -5.194539001 0.057185188 -0.081092488 -9.566863552 3.774348550 -2.429667626
1430533010.610278130 -5.212056921 0.045991116 -0.077151950 -9.526020095 3.913028540 -2.223998255
1430533010.620278358 -5.234183732 0.039122606 -0.070010655 -9.401410124 3.962458761 -2.023216620
1430533010.630278111 -5.256446906 0.029036075 -0.067605181 -9.223502118 3.949010468 -1.766525443
1430533010.640278101 -5.278790212 0.013710757 -0.061743227 -9.082766844 3.924815790 -1.558883760
1430533010.650278091 -5.292509783 0.001584158 -0.062876338 -8.980576677 3.837568207 -1.354757520
1430533010.660278320 -5.302547189 -0.009889271 -0.062094817 -8.849881074 3.782503375 -1.162208179
1430533010.670278072 -5.307178411 -0.018683484 -0.062776940 -8.773659362 3.748292820 -1.048134568
1430533010.680278063 -5.308125804 -0.028556751 -0.064414051 -8.746436204 3.683192953 -0.889619242
1430533010.690278053 -5.305964684 -0.039129403 -0.066389181 -8.692883210 3.646996267 -0.803693611
1430533010.700278282 -5.306082570 -0.046819259 -0.069554579 -8.727669946 3.602184899 -0.714764474
1430533010.710278034 -5.301041245 -0.056537762 -0.076616665 -8.759655818 3.620385191 -0.673457624
1430533010.720278025 -5.295664183 -0.063129686 -0.078729016 -8.820365270 3.631741890 -0.615819318
1430533010.730278254 -5.283193247 -0.071260420 -0.083693695 -8.917384151 3.666780365 -0.561568129
1430533010.740278244 -5.277787735 -0.075704275 -0.094477342 -9.071172969 3.703396392 -0.528383713
1430533010.750278234 -5.269938798 -0.079407367 -0.096476286 -9.159727109 3.740364394 -0.479054087
1430533010.760277987 -5.263630803 -0.080429407 -0.105262048 -9.227243971 3.789995453 -0.378898580
1430533010.770278215 -5.258062440 -0.076368207 -0.116394292 -9.319411419 3.826087642 -0.245111282
1430533010.780278206 -5.250639197 -0.078919153 -0.117646963 -9.367359336 3.827402035 -0.044366735
1430533010.790278196 -5.246069854 -0.079664526 -0.121818792 -9.366958705 3.841154655 0.177969918
1430533010.800277948 -5.245649721 -0.072885863 -0.129353242 -9.350554750 3.802702874 0.483400034
1430533010.810278177 -5.245994265 -0.072906709 -0.132506325 -9.316669045 3.756031204 0.759330399
1430533010.820278168 -5.247953277 -0.061373037 -0.135897815 -9.239539774 3.597523082 1.121991281
1430533010.830278158 -5.254894188 -0.055861120 -0.138135232 -9.128985416 3.490572004 1.449478881
1430533010.840277910 -5.259495505 -0.053451415 -0.133313833 -9.026791897 3.274652920 1.813795998
1430533010.850278139 -5.267540988 -0.041987964 -0.132317423 -8.937292844 3.034312977 2.143548845
1430533010.860278368 -5.280659848 -0.033268566 -0.125198366 -8.854152241 2.772965740 2.386921817
1430533010.870278120 -5.292237095 -0.021397327 -0.117729156 -8.809877105 2.522729063 2.621563278
1430533010.880278111 -5.303615939 -0.014376489 -0.114267508 -8.692900522 2.226921514 2.762718408
1430533010.890278101 -5.313609341 -0.001834785 -0.102817613 -8.663804185 2.002355802 2.804738060
1430533010.900278330 -5.318041872 0.003360140 -0.092170365 -8.664210010 1.753924107 2.825690178
1430533010.910278082 -5.319799394 0.011000036 -0.081879285 -8.683892749 1.539785138 2.784320430
1430533010.920278072 -5.314984151 0.016757791 -0.069386405 -8.735943298 1.357301347 2.598067757
1430533010.930278063 -5.305728322 0.026338435 -0.057457667 -8.724225292 1.166034025 2.457588395
1430533010.940278292 -5.289660487 0.030684808 -0.050152682 -8.785567997 1.097348245 2.230531039
1430533010.950278044 -5.263474036 0.039598507 -0.035627834 -8.836310613 1.006195246 2.063276535
1430533010.960278034 -5.233902709 0.039792776 -0.028432145 -8.894104459 0.885084526 1.879731086
1430533010.970278263 -5.198154997 0.042786843 -0.017029665 -8.946840132 0.772905800 1.802044122
1430533010.980278254 -5.164295745 0.046828813 -0.008685568 -9.049669558 0.639341343 1.679721757
1430533010.990278244 -5.133588268 0.043331574 -0.003324904 -9.089548161 0.517764584 1.561662440
1430533011.000277996 -5.105540203 0.047958777 0.004033108 -9.170458883 0.279871342 1.534789860
1430533011.010278225 -5.078464009 0.043610680 0.006369640 -9.238693109 0.021857345 1.516643769
1430533011.020278215 -5.062312361 0.038459805 0.008025039 -9.308790997 -0.247167111 1.424106403
1430533011.030278206 -5.050302518 0.041130028 0.006868104 -9.386878971 -0.603126028 1.429039174
1430533011.040277958 -5.053474583 0.035565885 0.001030450 -9.479395089 -0.950344748 1.342684254
1430533011.050278187 -5.067643980 0.026275810 -0.005804551 -9.500451428 -1.302061534 1.304356517
1430533011.060278177 -5.094732024 0.024554797 -0.011548662 -9.523209215 -1.596495081 1.183213526
1430533011.070278168 -5.125401220 0.017324556 -0.024199840 -9.585698769 -1.854402619 1.059930556
1430533011.080277920 -5.158395597 0.007536198 -0.031034325 -9.564770011 -2.061174765 0.933515615
1430533011.090278149 -5.196704441 0.006641472 -0.043585857 -9.549988683 -2.235778556 0.789842920
1430533011.100278378 -5.236007956 0.005780244 -0.059180574 -9.545777801 -2.453137547 0.645506728
1430533011.110278130 -5.264612421 0.006114950 -0.071255863 -9.506038620 -2.533359323 0.542467645
1430533011.120278120 -5.295178525 0.008692020 -0.080516813 -9.490320100 -2.621943496 0.393001465
1430533011.130278111 -5.316478224 0.016458343 -0.091306237 -9.373631545 -2.636768510 0.276105313
1430533011.140278339 -5.328112164 0.024980794 -0.096221497 -9.286977288 -2.732719199 0.208455844
1430533011.150278091 -5.322825335 0.034623267 -0.106931569 -9.229041116 -2.656799562 0.095483486
1430533011.160278082 -5.312149226 0.055533723 -0.106100370 -9.130399892 -2.719571793 -0.016986555
1430533011.170278072 -5.293937373 0.068686244 -0.108127036 -9.152916745 -2.739635509 -0.148686221
1430533011.180278301 -5.257462890 0.081546672 -0.111577094 -9.122182136 -2.774320269 -0.238518680
1430533011.190278053 -5.220685424 0.091791418 -0.109348036 -9.125822388 -2.826534155 -0.321194050
1430533011.200278044 -5.177386833 0.106509170 -0.106031270 -9.116332776 -2.817283377 -0.475753394
1430533011.210278034 -5.126953951 0.109432533 -0.106164685 -9.125551920 -2.830765395 -0.626968413
1430533011.220278263 -5.078016150 0.110218562 -0.104727583 -9.178159917 -2.926069869 -0.708863574
1430533011.230278254 -5.024596322 0.107262811 -0.105746125 -9.258376757 -2.951678358 -0.864975472
1430533011.240278006 -4.968822427 0.093599043 -0.102618523 -9.279395017 -2.971138953 -1.032518143
1430533011.250278234 -4.917131125 0.072075297 -0.107100859 -9.370513765 -3.021007460 -1.201077943
1430533011.260278225 -4.865566307 0.045799207 -0.108314946 -9.431807800 -3.096890273 -1.318201250
1430533011.270278215 -4.819131599 0.017218105 -0.112234120 -9.436769509 -3.170407802 -1.432403030
1430533011.280277967 -4.779297021 -0.009269444 -0.117841461 -9.485396226 -3.231299082 -1.525626480
1430533011.290278196 -4.750372410 -0.034811954 -0.122556536 -9.473731050 -3.307501655 -1.585638710
1430533011.300278187 -4.735006190 -0.057202616 -0.130235042 -9.504199996 -3.439564028 -1.674568476
1430533011.310278177 -4.732449067 -0.071215930 -0.137880422 -9.423071227 -3.551037574 -1.751951290
1430533011.320277929 -4.744869673 -0.078200282 -0.137070748 -9.409412874 -3.652437682 -1.801057621
1430533011.330278158 -4.774977276 -0.071087431 -0.137764885 -9.375068681 -3.873863356 -1.902406267
1430533011.340278387 -4.826055175 -0.052300673 -0.130245656 -9.271568167 -3.997343285 -1.982925688
1430533011.350278139 -4.898651377 -0.018113254 -0.121597449 -9.227785079 -4.178697331 -2.044142120
1430533011.360278130 -4.979958788 0.020920228 -0.108211598 -9.184884602 -4.272407562 -2.194744968
1430533011.370278120 -5.077820121 0.074210739 -0.090584676 -9.214402597 -4.424633776 -2.305155434
1430533011.380278349 -5.181797891 0.125746198 -0.065057428 -9.309370691 -4.506664483 -2.516357737
1430533011.390278101 -5.289721048 0.183609172 -0.029934205 -9.391146204 -4.577593904 -2.702171962
1430533011.400278091 -5.395650584 0.237807691 0.004837225 -9.527025048 -4.596193070 -2.916597995
1430533011.410278082 -5.498713603 0.284438121 0.051768031 -9.724591584 -4.563302659 -3.110530803
1430533011.420278311 -5.586753637 0.321414943 0.103860016 -9.987980085 -4.533025544 -3.381167992
1430533011.430278063 -5.662621283 0.348645473 0.159828210 -10.238143117 -4.412131811 -3.622533391
1430533011.440278053 -5.717705111 0.362724663 0.224799199 -10.524611534 -4.291420522 -3.842496384
1430533011.450278044 -5.748933023 0.357744701 0.286193688 -10.804066513 -4.113760541 -4.085708008
1430533011.460278273 -5.762362982 0.344468503 0.352437433 -11.012287525 -3.828093732 -4.362519091
1430533011.470278263 -5.756444636 0.320824972 0.415225471 -11.139480673 -3.511474986 -4.602187821
1430533011.480278015 -5.728382064 0.290788456 0.469373714 -11.172392310 -3.145362565 -4.810311409
1430533011.490278244 -5.694482262 0.249086497 0.522877730 -11.159455304 -2.692295882 -4.984966183
1430533011.500278234 -5.643460244 0.206735833 0.566965690 -11.088415534 -2.165194385 -5.123359947
1430533011.510278225 -5.582367675 0.162434853 0.595009644 -10.907490824 -1.644829442 -5.202025537
1430533011.520277977 -5.513612299 0.123390971 0.613701930 -10.687834807 -1.038944534 -5.262361682
1430533011.530278206 -5.435796430 0.086663614 0.624964678 -10.404663777 -0.362187222 -5.212040190
1430533011.540278196 -5.356282747 0.056325920 0.612844232 -10.024679311 0.290441066 -5.097416770
1430533011.550278187 -5.271183405 0.034793919 0.591584555 -9.652023700 0.902869684 -4.935374532
1430533011.560277939 -5.183308243 0.023957517 0.560241956 -9.375795428 1.420408667 -4.765734582
1430533011.570278168 -5.100102912 0.014074686 0.517830606 -9.112514105 1.812579340 -4.562096588
1430533011.580278158 -5.016284695 0.015661162 0.474721705 -8.943570181 2.169160423 -4.325498425
1430533011.590278149 -4.935309022 0.016929003 0.433562383 -8.853135584 2.445093334 -4.132623027
1430533011.600277901 -4.859903630 0.028658725 0.389850757 -8.808528595 2.634927011 -3.954732376
1430533011.610278130 -4.788420625 0.041326245 0.355180163 -8.872567506 2.737162987 -3.755919412
1430533011.620278358 -4.731174670 0.050400144 0.328526655 -8.995250213 2.741232414 -3.604448933
1430533011.630278111 -4.685242669 0.066204712 0.310653216 -9.185303674 2.731961099 -3.511517328
1430533011.640278101 -4.649184916 0.070922008 0.298181508 -9.423657156 2.650143173 -3.432206869
1430533011.650278091 -4.623466044 0.072329688 0.310293899 -9.689321387 2.550831670 -3.421102389
1430533011.660278320 -4.615735848 0.066365564 0.322505231 -9.857705564 2.528154161 -3.457186292
1430533011.670278072 -4.612214677 0.056835280 0.352073902 -10.058545319 2.528321264 -3.463728288
1430533011.680278063 -4.619083069 0.035639375 0.380293670 -10.124731489 2.597494991 -3.531281073
1430533011.690278053 -4.623086805 0.003642945 0.409841280 -10.217321020 2.671145761 -3.576462114
1430533011.700278282 -4.638177388 -0.029208548 0.446119073 -10.239999093 2.846448020 -3.647178782
1430533011.710278034 -4.648526158 -0.080178485 0.479809016 -10.250792010 2.988527418 -3.713212311
1430533011.720278025 -4.656724015 -0.133364010 0.507149570 -10.189681451 3.200087280 -3.773220617
1430533011.730278254 -4.663147814 -0.198021495 0.530504041 -10.146344779 3.446609931 -3.819677661
1430533011.740278244 -4.656215987 -0.271881633 0.550398684 -9.939960169 3.812799676 -3.825547327
1430533011.750278234 -4.638408429 -0.356205751 0.561710758 -9.824774111 4.139742576 -3.837323731
1430533011.760277987 -4.618657147 -0.441486940 0.560997176 -9.727517438 4.465288979 -3.760549228
1430533011.770278215 -4.587725738 -0.533705247 0.552588991 -9.576996361 4.702613842 -3.572810477
1430533011.780278206 -4.547043849 -0.626306920 0.537032874 -9.457548344 5.019404188 -3.476253887
1430533011.790278196 -4.503101344 -0.717728171 0.505716935 -9.375719260 5.262938332 -3.204866357
1430533011.800277948 -4.451979168 -0.812670965 0.470739181 -9.274828907 5.526741107 -2.933203134
1430533011.810278177 -4.395201615 -0.897258501 0.422178336 -9.188166697 5.679331547 -2.608023068
1430533011.820278168 -4.335849925 -0.984399232 0.362119315 -9.113351477 5.820470771 -2.308367163
1430533011.830278158 -4.267798418 -1.059706252 0.289570295 -9.038128232 5.976177624 -1.918473795
1430533011.840277910 -4.196391689 -1.124878059 0.210577508 -8.964348017 6.013811953 -1.462076610
1430533011.850278139 -4.121173610 -1.190339569 0.119364877 -8.965048521 6.092466494 -1.073858064
1430533011.860278368 -4.044922474 -1.239930402 0.020308723 -8.837841719 6.069630587 -0.611245628
1430533011.870278120 -3.971667365 -1.278409683 -0.079546920 -8.717781567 6.085191972 -0.195759386
1430533011.880278111 -3.894769976 -1.309811155 -0.190835264 -8.620719472 6.101092402 0.290524745
1430533011.890278101 -3.827556385 -1.321792431 -0.299525044 -8.425513454 6.068576920 0.726501253
1430533011.900278330 -3.762321735 -1.322230322 -0.416206986 -8.305348625 6.086819930 1.200641047
1430533011.910278082 -3.704481589 -1.310550486 -0.534212467 -8.077316002 6.020092605 1.624263999
1430533011.920278072 -3.658047332 -1.278912103 -0.648021067 -7.904928331 5.978879478 2.138366918
1430533011.930278063 -3.626992802 -1.232329529 -0.762361521 -7.620241706 5.909218677 2.622770738
1430533011.940278292 -3.600021247 -1.166483947 -0.879956800 -7.389238213 5.904014054 3.083147173
1430533011.950278044 -3.589680214 -1.087735444 -0.994589327 -7.206647893 5.755333768 3.521662832
1430533011.960278034 -3.595660843 -0.991622702 -1.099009563 -6.996721157 5.532199200 3.910914888
1430533011.970278263 -3.606130811 -0.883135011 -1.201931408 -6.839740387 5.251508414 4.177616558
1430533011.980278254 -3.629816978 -0.772179930 -1.293633710 -6.811221419 4.929773315 4.431164084
