# timestamp(s) wx wy wz ax ay az
1430532999.710278034 -4.440408937 -0.089867573 -0.085466770 -9.776564514 0.551701508 -6.181008395
1430532999.720278025 -4.442064486 -0.088002814 -0.085174754 -9.829971254 0.781282871 -6.105990553
1430532999.730278015 -4.442469551 -0.092218844 -0.080622976 -9.807418890 1.113807194 -6.076279237
1430532999.740278006 -4.443295197 -0.090506196 -0.083700237 -9.780193295 1.317963938 -6.049729689
1430532999.750277996 -4.442622993 -0.087974319 -0.080991757 -9.803459133 1.605859458 -5.979713261
1430532999.760277987 -4.442019045 -0.091769536 -0.085971267 -9.795843341 1.831931296 -5.869566111
1430532999.770277977 -4.441815254 -0.087478912 -0.080157576 -9.851282507 2.074689328 -5.769019882
1430532999.780277967 -4.438700066 -0.089184560 -0.081197682 -9.838475009 2.358744387 -5.707810859
1430532999.790277958 -4.442716775 -0.086485025 -0.082405183 -9.865938847 2.552334308 -5.572052942
1430532999.800277948 -4.439719407 -0.087070095 -0.086355504 -9.881053023 2.784434010 -5.420884458
1430532999.810277939 -4.464846726 0.053561844 -0.028389808 -8.414953880 4.851909901 -0.230994069
1430532999.820277929 -4.463430722 0.053268918 -0.026076859 -8.408281322 4.798979989 0.031182091
1430532999.830277920 -4.465472108 0.055109585 -0.025801531 -8.393140506 4.794182894 0.196138600
1430532999.840277910 -4.467335644 0.054032796 -0.028625757 -8.367881889 4.815715649 0.392576444
1430532999.850277901 -4.465282937 0.056496792 -0.026963684 -8.409172939 4.757114248 0.640129779
1430532999.860277891 -4.466169835 0.055267747 -0.027831859 -8.397030104 4.696713404 0.803881049
1430532999.870277882 -4.466460429 0.056347922 -0.024651738 -8.384993178 4.691977092 1.008065637
1430532999.880277872 -4.463955949 0.053552164 -0.026906271 -8.357839810 4.612584975 1.213128620
1430532999.890277863 -4.464949461 0.057265158 -0.025831124 -8.432069943 4.573184264 1.388830494
1430532999.900277853 -4.464825967 0.054047896 -0.024736198 -8.382705288 4.478272091 1.584235965
1430532999.910277843 -4.466725503 0.056245697 -0.026749414 -8.451153052 4.398185068 1.799026732
1430532999.920277834 -4.324580341 0.116299820 -0.076654353 -8.871254275 2.840605687 5.455485222
1430532999.930277824 -4.324304857 0.117186890 -0.074028912 -8.850127120 2.623582771 5.561399379
1430532999.940277815 -4.329679512 0.115319062 -0.076566879 -8.829636949 2.331934638 5.612143814
1430532999.950277805 -4.324918919 0.114357051 -0.075378239 -8.862697579 2.125083119 5.746570093
1430532999.960277796 -4.327015195 0.113638867 -0.076095007 -8.878331846 1.859296658 5.817880647
1430532999.970277786 -4.324129660 0.114797989 -0.076802340 -8.905061612 1.591815553 5.856493418
1430532999.980277777 -4.323488969 0.114839061 -0.078825965 -8.872179181 1.352831751 5.952802123
1430532999.990277767 -4.325830942 0.116092959 -0.074163076 -8.890459493 1.076054038 5.979094527
1430533000.000277758 -4.327730336 0.115471843 -0.079399798 -8.944726137 0.781607964 5.976995360
1430533000.010277748 -4.514322547 -0.001964723 -0.113867654 -9.056588325 3.473093452 -1.713051919
1430533000.020277739 -4.512612270 -0.002053743 -0.114423826 -9.015464854 3.548887762 -1.556948175
1430533000.030277729 -4.514383115 0.001494986 -0.114287926 -9.047918646 3.598488763 -1.441614558
1430533000.040277719 -4.512084603 0.001748343 -0.114983648 -9.067928961 3.635970551 -1.289224610
1430533000.050277710 -4.515105286 -0.000563219 -0.111363946 -9.110531228 3.686644764 -1.123834004
1430533000.060277700 -4.511664039 -0.001753805 -0.112637274 -9.057854010 3.737548846 -0.894438664
1430533000.070277691 -4.513019276 0.000789147 -0.112095973 -9.110100052 3.763701919 -0.767785316
1430533000.080277681 -4.513135702 -0.001229236 -0.111903719 -9.091520708 3.767782565 -0.577190814
1430533000.090277672 -4.515991115 -0.002435912 -0.114245113 -9.073532516 3.814150257 -0.460014392
1430533000.100277662 -4.513570844 0.001046885 -0.111504623 -9.084817260 3.786581993 -0.295905894
1430533000.110277653 -4.513150817 -0.001882317 -0.113573555 -9.093436525 3.768797870 -0.087311231
1430533000.120277643 -4.682294851 -0.074579761 -0.205658962 -9.096979753 5.547892905 -2.656473915
1430533000.130277634 -4.684810625 -0.075110302 -0.204956979 -9.071326775 5.687277135 -2.347753631
1430533000.140277624 -4.679008259 -0.075894740 -0.200854927 -9.086519330 5.758458425 -2.103439424
1430533000.150277615 -4.684672080 -0.077382248 -0.204225750 -9.054982112 5.815268191 -1.826646470
1430533000.160277605 -4.679460847 -0.076897296 -0.205258211 -9.145320131 5.885764101 -1.549670552
1430533000.170277596 -4.684835910 -0.072101132 -0.201503068 -9.113105221 5.922844696 -1.261187422
1430533000.180277586 -4.684218250 -0.073844299 -0.204460395 -9.151087570 5.951040408 -1.012587692
1430533000.190277576 -4.680871583 -0.074737995 -0.202755777 -9.173519653 5.993507391 -0.724669690
1430533000.200277567 -4.679423662 -0.072473554 -0.203396929 -9.191149078 5.988584935 -0.434299121
1430533000.210277557 -4.609868414 0.051585411 -0.114191712 -9.978387188 0.062842972 3.247053136
1430533000.220277548 -4.610282890 0.053854704 -0.114762353 -9.980497030 -0.075538595 3.228957263
1430533000.230277538 -4.606577453 0.053907814 -0.115941330 -10.003424682 -0.232782009 3.175505245
1430533000.240277529 -4.606204185 0.053083065 -0.113067445 -9.994605595 -0.407307281 3.201415579
1430533000.250277519 -4.607122628 0.052382199 -0.113446475 -9.989386531 -0.568969418 3.139190268
1430533000.260277510 -4.605594486 0.054990938 -0.115307132 -10.023443010 -0.745657272 3.115574254
1430533000.270277500 -4.607717129 0.050798838 -0.115573745 -9.981867146 -0.869053167 3.093982545
1430533000.280277491 -4.606467201 0.056695058 -0.115106394 -9.988054350 -1.006721726 3.012084666
1430533000.290277481 -4.609153615 0.052751690 -0.117078148 -9.997727376 -1.216975154 2.938979868
1430533000.300277472 -4.856122258 0.016754037 -0.092575606 -9.121956454 -0.999186725 2.568511203
1430533000.310277462 -4.856131517 0.016896269 -0.091648204 -9.059234693 -1.163935051 2.510727266
1430533000.320277452 -4.855372621 0.016034127 -0.093062564 -9.068123707 -1.278398506 2.421236242
1430533000.330277443 -4.854555349 0.015871968 -0.093442327 -9.036976714 -1.414431057 2.374673848
1430533000.340277433 -4.858676733 0.015597814 -0.091700417 -9.045370924 -1.546889498 2.289153584
1430533000.350277424 -4.855339285 0.013116376 -0.093659350 -9.042776282 -1.648675805 2.223606979
1430533000.360277414 -4.859155375 0.016054619 -0.093688309 -9.044533273 -1.741310416 2.136986898
1430533000.370277405 -4.854593001 0.017362588 -0.093746059 -9.075764188 -1.916209233 2.047354537
1430533000.380277395 -4.853993369 0.015861160 -0.094758912 -9.049694030 -1.985134314 1.914231411
1430533000.390277386 -5.072812530 0.016285804 -0.123125697 -9.349201313 -1.836766795 2.508474536
1430533000.400277376 -5.074227290 0.019041137 -0.120504756 -9.343750391 -1.968590868 2.374934398
1430533000.410277367 -5.074439328 0.017467855 -0.119982581 -9.363009641 -2.092214624 2.307659502
1430533000.420277357 -5.074520861 0.015496615 -0.117704995 -9.316000958 -2.214805545 2.127519043
1430533000.430277348 -5.073892829 0.015481725 -0.121034125 -9.349257977 -2.348443909 2.050707848
1430533000.440277338 -5.073576270 0.012223669 -0.119386485 -9.347209708 -2.448162154 1.914013175
1430533000.450277328 -5.076115238 0.015400892 -0.118766158 -9.351758119 -2.552278851 1.793647496
1430533000.460277319 -5.075276367 0.013414978 -0.121217675 -9.294289076 -2.632352621 1.674117418
1430533000.470277309 -5.071651528 0.016932622 -0.119801450 -9.323909784 -2.812515192 1.501272404
1430533000.480277300 -5.073643415 0.015768831 -0.118975754 -9.299907554 -2.887272176 1.391393024
1430533000.490277290 -5.071151868 0.015666880 -0.122149744 -9.331287833 -2.953847981 1.205725915
1430533000.500277281 -5.189983269 -0.001157157 -0.147376885 -9.210637958 -2.904803817 0.949072178
1430533000.510277271 -5.188750331 0.001207028 -0.144483950 -9.217221105 -2.946811429 0.829562156
1430533000.520277262 -5.188961464 0.003266178 -0.145260486 -9.157767110 -3.040433500 0.642952610
1430533000.530277252 -5.187279948 0.004588240 -0.144895528 -9.183999957 -3.072864681 0.466185704
1430533000.540277243 -5.192450499 0.002427159 -0.145000204 -9.175224027 -3.077418504 0.312230196
1430533000.550277233 -5.189207148 0.003867366 -0.147008763 -9.172097232 -3.142354991 0.158056580
1430533000.560277224 -5.192847787 0.002388389 -0.146071851 -9.219292613 -3.128942190 -0.056532212
1430533000.570277214 -5.186914663 0.003068714 -0.146286035 -9.195628718 -3.182972576 -0.176079714
1430533000.580277205 -5.189924743 0.000141738 -0.145964675 -9.186982297 -3.170331924 -0.273307486
1430533000.590277195 -5.188569498 0.001379478 -0.149090801 -9.158812450 -3.174362452 -0.501341437
1430533000.600277185 -5.189542394 0.002511937 -0.142965282 -9.130717990 -3.177826774 -0.672733609
1430533000.610277176 -5.188652336 0.000132210 -0.144524513 -9.118215096 -3.167081430 -0.822224458
1430533000.620277166 -5.189013665 -0.001139055 -0.146204368 -9.147862038 -3.098071640 -1.027851433
1430533000.630277157 -5.189290466 0.000107608 -0.145701694 -9.112776084 -3.047003557 -1.157796803
1430533000.640277147 -5.191892618 -0.000124213 -0.142647091 -9.124303460 -2.969534635 -1.360925865
1430533000.650277138 -5.187915138 -0.000117133 -0.144874601 -9.142490322 -2.902967092 -1.499280751
1430533000.660277128 -5.190819835 -0.000021705 -0.146322090 -9.142869332 -2.892925350 -1.663620507
1430533000.670277119 -5.189486378 0.003917231 -0.145220310 -9.148396241 -2.775854188 -1.801153099
1430533000.680277109 -5.190059851 -0.002645604 -0.147134898 -9.120329661 -2.724685948 -1.956351897
1430533000.690277100 -5.186950424 -0.000377867 -0.144469984 -9.124773852 -2.645496845 -2.094728157
1430533000.700277090 -5.287412672 -0.029685677 -0.111250289 -9.123814326 -2.254221641 -3.202835419
1430533000.710277081 -5.285516697 -0.026855176 -0.111326255 -9.133531425 -2.108039387 -3.317801953
1430533000.720277071 -5.292278603 -0.025990597 -0.114823064 -9.116384470 -1.959593217 -3.453890086
1430533000.730277061 -5.287917901 -0.025210250 -0.108729659 -9.132631710 -1.779220566 -3.530346716
1430533000.740277052 -5.288221432 -0.028181859 -0.112506690 -9.139987310 -1.596414264 -3.615328531
1430533000.750277042 -5.287943050 -0.026084682 -0.108941838 -9.133269384 -1.394129999 -3.682469141
1430533000.760277033 -5.289557894 -0.027985706 -0.110474773 -9.128217552 -1.235606752 -3.764117809
1430533000.770277023 -5.288736620 -0.024806593 -0.112546337 -9.127124438 -1.067598715 -3.862858157
1430533000.780277014 -5.287537920 -0.024381127 -0.111004929 -9.140370170 -0.878578060 -3.867662994
1430533000.790277004 -5.289049792 -0.024379022 -0.110571088 -9.138040577 -0.690510175 -3.914082283
1430533000.800276995 -5.285754430 -0.020555867 -0.112339952 -9.140300879 -0.460657625 -3.959201610
1430533000.810276985 -5.284936856 -0.026395357 -0.112967174 -9.127919983 -0.302379529 -4.005484775
1430533000.820276976 -5.288677613 -0.024536212 -0.109548893 -9.152180371 -0.076746933 -3.996152446
1430533000.830276966 -5.285073325 -0.025272322 -0.111710197 -9.120773861 0.147511110 -3.992980506
1430533000.840276957 -5.286979897 -0.025423171 -0.110543287 -9.112376443 0.326995795 -3.978236349
1430533000.850276947 -5.288749758 -0.026636264 -0.110985191 -9.146535533 0.526635842 -3.959335040
1430533000.860276937 -5.287633899 -0.027622653 -0.112682274 -9.153884864 0.689018479 -3.911461242
1430533000.870276928 -5.288173930 -0.025765435 -0.111999963 -9.118711269 0.884713869 -3.922278028
1430533000.880276918 -5.286881543 -0.025555340 -0.110764372 -9.136243992 1.145369911 -3.844110318
1430533000.890276909 -5.288555686 -0.026947825 -0.112878137 -9.123202316 1.248062207 -3.781472569
1430533000.900276899 -5.288945126 -0.025001404 -0.111762591 -9.099522846 1.503302966 -3.742604744
1430533000.910276890 -5.272035834 -0.012006237 -0.125560409 -9.192293392 1.942668004 -4.558533900
1430533000.920276880 -5.274824187 -0.009613283 -0.124292378 -9.212772393 2.165367909 -4.480385789
1430533000.930276871 -5.272194430 -0.010088191 -0.126811832 -9.193836839 2.355796917 -4.371343214
1430533000.940276861 -5.271970107 -0.011660779 -0.127137051 -9.186152070 2.583793116 -4.241449257
1430533000.950276852 -5.272957472 -0.007760158 -0.127124359 -9.208509515 2.786886427 -4.097028275
1430533000.960276842 -5.271933118 -0.011823211 -0.123841316 -9.229568044 3.010558065 -3.940216927
1430533000.970276833 -5.272861918 -0.010758333 -0.122904737 -9.259949869 3.178057020 -3.778004901
1430533000.980276823 -5.273293447 -0.009603169 -0.127710236 -9.204681008 3.349552861 -3.620688925
1430533000.990276814 -5.275872927 -0.008411332 -0.125639018 -9.191209989 3.534386563 -3.430199128
1430533001.000276804 -5.272233690 -0.008917097 -0.122967756 -9.230311644 3.676745184 -3.235487258
1430533001.010276794 -5.410745678 0.000534702 -0.097165839 -8.957249062 2.774306335 -4.082504256
1430533001.020276785 -5.412482471 0.001258820 -0.100288570 -8.946694278 3.036056983 -3.901667721
1430533001.030276775 -5.413454539 0.002720044 -0.098677026 -8.964454797 3.195632818 -3.798078979
1430533001.040276766 -5.411299066 -0.000588341 -0.101727736 -8.970950036 3.391078086 -3.588106941
1430533001.050276756 -5.412379569 0.002255082 -0.099298506 -8.980206192 3.591909474 -3.404649974
1430533001.060276747 -5.410859979 0.000167345 -0.098919217 -8.960760847 3.737476795 -3.197216951
1430533001.070276737 -5.409554203 -0.000543241 -0.096713150 -8.936098244 3.877994708 -3.013756180
1430533001.080276728 -5.408393372 0.000766414 -0.101368211 -8.955049503 4.059156984 -2.837954718
1430533001.090276718 -5.411008513 0.000681636 -0.100575470 -8.953951386 4.127215636 -2.588748344
1430533001.100276709 -5.411375678 0.001544998 -0.098364000 -8.988425115 4.305059493 -2.368239253
1430533001.110276699 -5.284621794 0.024184230 -0.081109987 -9.192104264 2.112057748 -3.735299601
1430533001.120276690 -5.282106112 0.024185756 -0.080820269 -9.215867410 2.309082634 -3.589376007
1430533001.130276680 -5.286261482 0.025952980 -0.084404266 -9.207945319 2.502403644 -3.535694219
1430533001.140276670 -5.286373906 0.023078247 -0.081708219 -9.180040892 2.650175267 -3.318169352
1430533001.150276661 -5.282628776 0.024489567 -0.084865737 -9.180022612 2.821952788 -3.204200576
1430533001.160276651 -5.285959583 0.023591495 -0.083520156 -9.195164026 2.967036704 -3.072404689
1430533001.170276642 -5.284920884 0.025236700 -0.082525788 -9.215825786 3.102510758 -2.923953748
1430533001.180276632 -5.283745146 0.025966356 -0.084433701 -9.181477032 3.251931416 -2.748798009
1430533001.190276623 -5.285427588 0.024016052 -0.084130334 -9.179309380 3.381732612 -2.579376427
1430533001.200276613 -5.286273715 0.026134415 -0.085214441 -9.234602913 3.490345548 -2.420890918
1430533001.210276604 -5.245342616 -0.115636050 -0.111554473 -8.943326516 3.931454331 -2.073978899
1430533001.220276594 -5.247832543 -0.114917613 -0.109007576 -8.963898062 4.031583781 -1.835958477
1430533001.230276585 -5.244557742 -0.118542489 -0.111856100 -8.980294221 4.116038047 -1.605320481
1430533001.240276575 -5.245074424 -0.116496437 -0.112192051 -8.977734144 4.184454687 -1.410789639
1430533001.250276566 -5.247840120 -0.118289343 -0.116359012 -8.996826737 4.225095812 -1.190963290
1430533001.260276556 -5.248772719 -0.115133492 -0.115105696 -8.989656363 4.252444972 -0.929922433
1430533001.270276546 -5.246455930 -0.115045788 -0.111118673 -9.013539809 4.309672211 -0.726519025
1430533001.280276537 -5.244515193 -0.115175957 -0.114460260 -9.032457223 4.338581150 -0.458473798
1430533001.290276527 -5.244890710 -0.115744810 -0.111806465 -9.001540695 4.338477300 -0.240378130
1430533001.300276518 -5.246589183 -0.114996163 -0.113109410 -9.031015604 4.315344511 -0.065649692
1430533001.310276508 -5.352237869 -0.061247223 -0.115507975 -8.135983756 2.974100962 1.023683831
1430533001.320276499 -5.353842132 -0.061701355 -0.112228781 -8.174062371 2.875446932 1.157682929
1430533001.330276489 -5.356794957 -0.062185874 -0.113435817 -8.143925974 2.817972586 1.312045952
1430533001.340276480 -5.357706360 -0.063571495 -0.115111071 -8.129855390 2.720363755 1.503511317
1430533001.350276470 -5.354487387 -0.059254201 -0.113579669 -8.145631383 2.662581093 1.652309291
1430533001.360276461 -5.356798765 -0.062446376 -0.115380142 -8.138378363 2.508590352 1.767794476
1430533001.370276451 -5.357277557 -0.061745274 -0.113770944 -8.184941837 2.437746885 1.925057457
1430533001.380276442 -5.353612099 -0.062316081 -0.115183060 -8.156131070 2.290033812 2.016976834
1430533001.390276432 -5.352212086 -0.059715279 -0.117063014 -8.115514089 2.169034482 2.120379415
1430533001.400276423 -5.352691532 -0.062618125 -0.113882960 -8.129155211 2.053443453 2.263603464
1430533001.410276413 -5.245184168 0.024733083 -0.001827151 -9.833564056 -0.324935167 2.325543990
1430533001.420276403 -5.247437209 0.026099406 0.003345744 -9.853037153 -0.475193270 2.302987167
1430533001.430276394 -5.246586143 0.024749009 0.000876285 -9.882664687 -0.564657195 2.227432522
1430533001.440276384 -5.249513055 0.025462508 -0.000903123 -9.869053939 -0.758123502 2.217499538
1430533001.450276375 -5.247107913 0.025663668 0.002619720 -9.825529556 -0.826287807 2.131526831
1430533001.460276365 -5.245777449 0.022812784 0.000975181 -9.861867925 -0.954262341 2.119732077
1430533001.470276356 -5.246624670 0.024327844 0.002389059 -9.843438438 -1.095529157 2.072554150
1430533001.480276346 -5.243309039 0.024446286 0.003135148 -9.831978981 -1.149609452 1.993790802
1430533001.490276337 -5.246868857 0.024491190 0.002962449 -9.888767336 -1.268016584 1.914014315
1430533001.500276327 -5.154858061 0.002923763 -0.058317654 -10.399508881 -0.981783034 -0.880368054
1430533001.510276318 -5.151495989 -0.000370003 -0.058513713 -10.429690964 -0.970975825 -0.898398587
1430533001.520276308 -5.151913275 -0.001649583 -0.055906880 -10.379315541 -0.930864645 -0.957083609
1430533001.530276299 -5.153876477 -0.004896318 -0.058143110 -10.371799023 -0.895984986 -1.019248455
1430533001.540276289 -5.150478246 0.002511276 -0.054681351 -10.398646386 -0.832979336 -1.073797292
1430533001.550276279 -5.151340317 0.001992812 -0.057876030 -10.349107247 -0.795077293 -1.139290763
1430533001.560276270 -5.153566279 0.002553800 -0.059751126 -10.375107905 -0.745908268 -1.183661116
1430533001.570276260 -5.153651792 -0.001703155 -0.057551798 -10.381462951 -0.678729361 -1.225298090
1430533001.580276251 -5.154448323 -0.000793672 -0.056870001 -10.408955035 -0.611721166 -1.256549040
1430533001.590276241 -5.151941101 0.002323023 -0.057525519 -10.388017643 -0.542339049 -1.297873200
1430533001.600276232 -5.300270146 -0.112397701 -0.088591958 -8.978988446 -2.279664493 0.153241066
1430533001.610276222 -5.303179923 -0.110468124 -0.086103619 -8.976406726 -2.344831384 0.029662581
1430533001.620276213 -5.299989689 -0.111888605 -0.083160261 -8.971614427 -2.367450141 -0.086971279
1430533001.630276203 -5.300496779 -0.109846691 -0.086306363 -8.937729778 -2.352129500 -0.199433365
1430533001.640276194 -5.300873044 -0.109004843 -0.085007744 -8.983294138 -2.343593781 -0.280232535
1430533001.650276184 -5.299003110 -0.110554878 -0.086529170 -8.952926811 -2.304230322 -0.452024103
1430533001.660276175 -5.301641325 -0.108258065 -0.085162337 -8.960130156 -2.321710306 -0.533603523
1430533001.670276165 -5.299201907 -0.106350184 -0.084483149 -8.965336987 -2.302294607 -0.643736687
1430533001.680276155 -5.300824488 -0.110041444 -0.085897862 -8.958148583 -2.255226082 -0.746977212
1430533001.690276146 -5.269779072 -0.003698485 -0.069820163 -8.592182131 -4.155248181 1.717903327
1430533001.700276136 -5.268163540 -0.003729036 -0.070436659 -8.600708569 -4.229728454 1.465779959
1430533001.710276127 -5.265661723 -0.004908630 -0.071543821 -8.573281015 -4.301972441 1.278741953
1430533001.720276117 -5.266987486 -0.003927166 -0.068912117 -8.598707224 -4.405695889 1.067490012
1430533001.730276108 -5.267030375 -0.003508996 -0.073467390 -8.604922689 -4.437878578 0.801014367
1430533001.740276098 -5.269544854 -0.001147709 -0.068638649 -8.586488266 -4.498721398 0.567194282
1430533001.750276089 -5.267353924 -0.003816023 -0.071184371 -8.585651518 -4.497471355 0.326580748
1430533001.760276079 -5.269335163 -0.003513083 -0.065492863 -8.536649842 -4.534211970 0.097073245
1430533001.770276070 -5.269030623 -0.002956824 -0.066939926 -8.557017028 -4.541636838 -0.190980451
1430533001.780276060 -5.266598819 -0.004731563 -0.069748671 -8.595200625 -4.545271811 -0.414980149
1430533001.790276051 -5.267989426 -0.004645000 -0.067742920 -8.606528094 -4.528180282 -0.694307738
1430533001.800276041 -5.394039462 0.063314154 -0.051858296 -8.973946199 -4.905117852 -0.074711129
1430533001.810276031 -5.393069312 0.059676465 -0.052985800 -8.978094568 -4.920823202 -0.402564664
1430533001.820276022 -5.393958427 0.064091752 -0.051545194 -8.959200107 -4.917539509 -0.692930745
1430533001.830276012 -5.393712235 0.064048224 -0.052227766 -8.975513170 -4.886134108 -0.940824565
1430533001.840276003 -5.393232025 0.063369369 -0.049436089 -8.920433710 -4.804399837 -1.230541057
1430533001.850275993 -5.392096119 0.063776478 -0.051805927 -8.944708320 -4.779032915 -1.461683983
1430533001.860275984 -5.394909520 0.063884962 -0.047842222 -8.897407151 -4.672526726 -1.744080707
1430533001.870275974 -5.391675624 0.062478319 -0.051399709 -8.936149986 -4.592947702 -2.029390743
1430533001.880275965 -5.392776149 0.063336401 -0.050644181 -8.930835129 -4.535404238 -2.274595419
1430533001.890275955 -5.390309846 0.063363174 -0.052326597 -8.950668105 -4.357338787 -2.514477385
1430533001.900275946 -5.279213644 0.020126592 -0.073246138 -8.942953771 -2.967189937 -3.361006128
1430533001.910275936 -5.282131093 0.020814183 -0.072279656 -8.895716770 -2.797748884 -3.555929832
1430533001.920275927 -5.278448128 0.021323096 -0.069871664 -8.873721334 -2.611823162 -3.685557240
1430533001.930275917 -5.279605764 0.022002598 -0.072718386 -8.886849638 -2.409758438 -3.808368671
1430533001.940275908 -5.279059745 0.020671376 -0.073322550 -8.924905294 -2.198565547 -3.987117169
1430533001.950275898 -5.283024558 0.020963068 -0.072535260 -8.875424739 -2.018425914 -4.075106350
1430533001.960275888 -5.279970120 0.019346644 -0.070401157 -8.896949041 -1.779265858 -4.191667627
1430533001.970275879 -5.281972888 0.022143937 -0.072832241 -8.879474978 -1.608183111 -4.311928333
1430533001.980275869 -5.282209226 0.021095941 -0.071703831 -8.923706474 -1.382994846 -4.394281190
1430533001.990275860 -5.279423467 0.023774998 -0.073840345 -8.925187872 -1.167316065 -4.432365003
1430533002.000275850 -5.280911295 0.022320707 -0.070552765 -8.890377213 -0.935839477 -4.517673790
1430533002.010275841 -5.248296189 -0.041444067 -0.096879262 -9.644224094 0.144407698 -4.294151791
1430533002.020275831 -5.251889303 -0.039765806 -0.096161753 -9.593653128 0.338882296 -4.279225324
1430533002.030275822 -5.252396202 -0.039199091 -0.096120918 -9.614417986 0.532932823 -4.201718033
1430533002.040275812 -5.249444775 -0.037494704 -0.095926323 -9.611653752 0.774469740 -4.232776707
1430533002.050275803 -5.250638423 -0.039841679 -0.097515030 -9.574955223 0.969314977 -4.154673369
1430533002.060275793 -5.252615049 -0.035798444 -0.096125587 -9.615805569 1.154600872 -4.088540090
1430533002.070275784 -5.248736114 -0.041048169 -0.096210962 -9.613242381 1.378057675 -4.031379734
1430533002.080275774 -5.249146860 -0.038808249 -0.099707108 -9.649201763 1.548778000 -3.930733864
1430533002.090275764 -5.248778477 -0.039570983 -0.094217620 -9.631066496 1.759868050 -3.885529637
1430533002.100275755 -5.250419949 -0.038925018 -0.099284705 -9.643860505 1.962537763 -3.790622838
1430533002.110275745 -5.390096742 0.024223413 -0.126787207 -9.502729438 0.665916834 -3.259735932
1430533002.120275736 -5.392527507 0.023952403 -0.125841175 -9.506737889 0.812687057 -3.273726694
1430533002.130275726 -5.392029182 0.025429802 -0.124513953 -9.494781290 0.950438004 -3.188676187
1430533002.140275717 -5.389924779 0.023901049 -0.125723686 -9.505794613 1.130204390 -3.134726487
1430533002.150275707 -5.390928890 0.024756844 -0.126691759 -9.495074877 1.296336975 -3.093398430
1430533002.160275698 -5.388373352 0.024397134 -0.126841675 -9.481328912 1.431859049 -3.028371170
1430533002.170275688 -5.387760792 0.025369889 -0.125600180 -9.487331031 1.582218020 -2.959796966
1430533002.180275679 -5.391082117 0.025221317 -0.126155823 -9.503684975 1.702122108 -2.878018171
1430533002.190275669 -5.388467063 0.025531345 -0.124845626 -9.480588995 1.864973903 -2.810357630
1430533002.200275660 -5.390339078 0.023640816 -0.124714551 -9.463009628 2.001480897 -2.708555154
1430533002.210275650 -5.470995311 0.078360815 -0.112243053 -9.469588927 1.564944094 -1.902979554
1430533002.220275640 -5.474656392 0.078002585 -0.112494415 -9.463987062 1.615464881 -1.833150623
1430533002.230275631 -5.467815589 0.078218749 -0.113704277 -9.467612187 1.697022140 -1.766858055
1430533002.240275621 -5.473298109 0.079741189 -0.113821868 -9.470197069 1.782291582 -1.672335126
1430533002.250275612 -5.469843406 0.080402622 -0.110978669 -9.428536294 1.876961065 -1.557926186
1430533002.260275602 -5.469982257 0.077544247 -0.113271722 -9.492831481 1.948327201 -1.488010828
1430533002.270275593 -5.472705653 0.080060132 -0.112762700 -9.495879147 1.985984370 -1.386818025
1430533002.280275583 -5.470065011 0.078886901 -0.112257504 -9.467028704 2.047597767 -1.289281847
1430533002.290275574 -5.471347210 0.078117013 -0.114048114 -9.486052143 2.117120364 -1.153663342
1430533002.300275564 -5.470693391 0.076586381 -0.110559957 -9.506616327 2.195672892 -1.081932293
1430533002.310275555 -5.156555644 -0.009511226 -0.079885675 -8.553857940 4.075589611 -3.900360487
1430533002.320275545 -5.154641522 -0.009132413 -0.083454873 -8.608546615 4.208422130 -3.665779639
1430533002.330275536 -5.154829891 -0.010531927 -0.083017825 -8.570393724 4.411530204 -3.474254088
1430533002.340275526 -5.154233356 -0.011384564 -0.078508300 -8.575333717 4.582209565 -3.268522426
1430533002.350275517 -5.157057592 -0.013213166 -0.086146926 -8.596305134 4.687336507 -3.028888459
1430533002.360275507 -5.153985636 -0.013075265 -0.081191985 -8.601812363 4.896845848 -2.794965197
1430533002.370275497 -5.155273647 -0.009529465 -0.083299971 -8.579823041 4.971327928 -2.503409753
1430533002.380275488 -5.151381379 -0.010948003 -0.079933855 -8.571508858 5.079397041 -2.237363467
1430533002.390275478 -5.154320565 -0.008898280 -0.083119025 -8.589326657 5.189386459 -1.984884306
1430533002.400275469 -5.152344423 -0.011842700 -0.080140919 -8.620679309 5.241642195 -1.735600167
1430533002.410275459 -5.315038619 -0.110032921 -0.147445559 -8.724020070 3.918050145 0.003025071
1430533002.420275450 -5.320680727 -0.107766612 -0.145499603 -8.751658461 3.924060294 0.198452394
1430533002.430275440 -5.316541826 -0.108764613 -0.150509833 -8.743981355 3.892807384 0.394514836
1430533002.440275431 -5.315586239 -0.106811105 -0.146684193 -8.734884618 3.852648481 0.642521492
1430533002.450275421 -5.318744732 -0.107494043 -0.146807492 -8.774742741 3.802920613 0.869119637
1430533002.460275412 -5.315301546 -0.109068975 -0.148164652 -8.771438718 3.717284694 1.086564898
1430533002.470275402 -5.313817813 -0.106972437 -0.145642865 -8.787393415 3.614217260 1.241720800
1430533002.480275393 -5.316953365 -0.108502646 -0.147626110 -8.752875699 3.554243930 1.447767524
1430533002.490275383 -5.316006483 -0.106665700 -0.141406594 -8.828641960 3.500284066 1.616472264
1430533002.500275373 -5.317740327 -0.108499600 -0.148562030 -8.759803936 3.351210509 1.769148299
1430533002.510275364 -5.285206768 -0.017754024 -0.112224127 -8.867790038 2.311076843 1.260762389
1430533002.520275354 -5.287766171 -0.018468180 -0.112944325 -8.831096863 2.223114441 1.374157379
1430533002.530275345 -5.287071923 -0.020885624 -0.110516440 -8.826649027 2.166427878 1.464627381
1430533002.540275335 -5.286429193 -0.015306944 -0.107905730 -8.813729199 2.007025311 1.601957595
1430533002.550275326 -5.286277286 -0.018463043 -0.111125896 -8.841554920 1.947328937 1.670490027
1430533002.560275316 -5.286464406 -0.017535370 -0.110933616 -8.818696622 1.815611540 1.769563741
1430533002.570275307 -5.287279989 -0.018532883 -0.109842457 -8.837311070 1.736939455 1.888796684
1430533002.580275297 -5.289140085 -0.017414765 -0.109516978 -8.822274826 1.551918364 1.953951612
1430533002.590275288 -5.284684508 -0.020822555 -0.109435725 -8.836302962 1.470309754 2.052884095
1430533002.600275278 -5.287660384 -0.016233626 -0.109932302 -8.816141838 1.354430912 2.120621265
1430533002.610275269 -5.124068204 0.031620689 -0.015210697 -9.634619087 0.927951426 2.043372314
1430533002.620275259 -5.124128807 0.032269735 -0.016710129 -9.620976999 0.819336804 2.104053600
1430533002.630275249 -5.124122719 0.033214908 -0.017379493 -9.636451189 0.706890789 2.129653715
1430533002.640275240 -5.124947033 0.033204320 -0.017366947 -9.641365727 0.583443942 2.173837227
1430533002.650275230 -5.122497733 0.031391172 -0.015973407 -9.620427605 0.489312702 2.150369881
1430533002.660275221 -5.120917321 0.036440653 -0.016530209 -9.634196992 0.354461857 2.171641876
1430533002.670275211 -5.120979267 0.032089209 -0.016338160 -9.655371372 0.243593918 2.193239415
1430533002.680275202 -5.121859832 0.031304503 -0.014857480 -9.620511239 0.122399775 2.181242595
1430533002.690275192 -5.186283487 0.022071159 -0.052745627 -9.788468980 -1.222749514 0.985224092
1430533002.700275183 -5.188827990 0.025181416 -0.055573406 -9.801111242 -1.275590384 0.879707800
1430533002.710275173 -5.188006402 0.022484763 -0.053642505 -9.809262283 -1.304285011 0.814403835
1430533002.720275164 -5.186170642 0.023700628 -0.052824417 -9.779091695 -1.342789885 0.758789333
1430533002.730275154 -5.192405743 0.023297113 -0.054349169 -9.828452501 -1.414695235 0.690835111
1430533002.740275145 -5.189562844 0.025247099 -0.050914081 -9.808397516 -1.449992560 0.558249002
1430533002.750275135 -5.187914584 0.023721333 -0.055481437 -9.801147183 -1.520953090 0.471533493
1430533002.760275126 -5.187466056 0.026033562 -0.054813426 -9.824912087 -1.543558015 0.399840396
1430533002.770275116 -5.185499437 0.024383881 -0.055423322 -9.777813459 -1.519339541 0.364617161
1430533002.780275106 -5.190936461 0.021146798 -0.056551543 -9.801557846 -1.574825138 0.247521972
1430533002.790275097 -5.371028596 -0.067058328 -0.073967918 -9.600531267 -1.975333557 -0.045703584
1430533002.800275087 -5.367527120 -0.066167236 -0.071845008 -9.599367017 -1.991223833 -0.153253563
1430533002.810275078 -5.375904376 -0.067564349 -0.068957252 -9.558376761 -1.962377543 -0.214999890
1430533002.820275068 -5.372454122 -0.069443107 -0.069723094 -9.593450202 -1.947675073 -0.346458870
1430533002.830275059 -5.369883269 -0.068709585 -0.069776865 -9.590621245 -1.973615379 -0.465543703
1430533002.840275049 -5.372810534 -0.068533424 -0.070421766 -9.608625065 -1.925584659 -0.562102998
1430533002.850275040 -5.375332740 -0.066095551 -0.070235923 -9.604279500 -1.906880882 -0.630384682
1430533002.860275030 -5.371257716 -0.065818473 -0.069413381 -9.587249927 -1.899305157 -0.804003351
1430533002.870275021 -5.371280862 -0.065093005 -0.075004582 -9.550863314 -1.837722365 -0.893308801
1430533002.880275011 -5.373340510 -0.065850934 -0.070275409 -9.577885648 -1.799329808 -0.964974075
1430533002.890275002 -5.266151959 -0.023409452 -0.101337003 -8.596864061 -3.859422718 1.218574663
1430533002.900274992 -5.268096826 -0.022520816 -0.099544282 -8.569081425 -3.946540888 1.006502572
1430533002.910274982 -5.266669156 -0.024940527 -0.105352730 -8.598208906 -3.985331231 0.779597514
1430533002.920274973 -5.269366942 -0.024747814 -0.103086651 -8.555593837 -4.017962166 0.576523465
1430533002.930274963 -5.270075616 -0.022294193 -0.103704532 -8.576904834 -4.089886190 0.334359502
1430533002.940274954 -5.262997444 -0.025563512 -0.101053446 -8.545565614 -4.099235678 0.151957017
1430533002.950274944 -5.263743894 -0.025343873 -0.103317930 -8.583300815 -4.123914404 -0.089263675
1430533002.960274935 -5.270202878 -0.024110534 -0.103492282 -8.532008264 -4.134781654 -0.319765950
1430533002.970274925 -5.262433752 -0.022907003 -0.102442781 -8.544861746 -4.109680713 -0.540713932
1430533002.980274916 -5.268436880 -0.022934450 -0.099889184 -8.526128806 -4.061028896 -0.770579827
1430533002.990274906 -5.321592383 0.073532071 -0.059620964 -9.069977280 -4.294366914 -1.570109267
1430533003.000274897 -5.316963140 0.072285288 -0.058166155 -9.078202946 -4.165489611 -1.776973872
1430533003.010274887 -5.315561106 0.072734757 -0.057936257 -8.994363667 -4.044377962 -2.035833600
1430533003.020274878 -5.318214596 0.072337235 -0.056882245 -9.049825965 -3.938946459 -2.232299492
1430533003.030274868 -5.315804399 0.072247049 -0.058695128 -9.040009128 -3.883894662 -2.507629455
1430533003.040274858 -5.316174379 0.074203245 -0.056714452 -9.010434959 -3.734892956 -2.662385093
1430533003.050274849 -5.316849161 0.074386029 -0.058714126 -9.049429518 -3.596834922 -2.878018523
1430533003.060274839 -5.318498171 0.078393063 -0.059275808 -8.991961286 -3.426522032 -3.121319903
1430533003.070274830 -5.318568516 0.073220258 -0.057171697 -8.988112428 -3.286220023 -3.258703293
1430533003.080274820 -5.316157376 0.073525948 -0.056483992 -9.008669876 -3.102665120 -3.474251190
1430533003.090274811 -5.318229074 0.073083730 -0.062496520 -9.046374877 -2.949507307 -3.608560978
1430533003.100274801 -5.256564138 0.009254938 -0.056289717 -8.968168153 -3.142008783 -3.173386505
1430533003.110274792 -5.263380838 0.006619389 -0.057714978 -8.955528770 -2.988366182 -3.386128901
1430533003.120274782 -5.264091510 0.006325707 -0.057127772 -8.944259568 -2.809747121 -3.461823228
1430533003.130274773 -5.262649646 0.005219784 -0.058476973 -8.949748549 -2.682747488 -3.655512261
1430533003.140274763 -5.261929313 0.008995622 -0.053042727 -8.915472942 -2.479328240 -3.847056003
1430533003.150274754 -5.260281943 0.009406853 -0.058982641 -8.900957947 -2.244466258 -3.921100958
1430533003.160274744 -5.261144138 0.008055738 -0.053276133 -8.915051778 -2.094691455 -4.050946237
1430533003.170274734 -5.260038281 0.006556372 -0.058227645 -8.947354164 -1.840242630 -4.175302121
1430533003.180274725 -5.264376560 0.008759109 -0.059945612 -8.933974609 -1.654380044 -4.275317697
1430533003.190274715 -5.261036014 0.006386513 -0.057806482 -8.885206044 -1.456811020 -4.360899541
1430533003.200274706 -5.263797216 0.007727076 -0.059376127 -8.926891531 -1.212110632 -4.460241122
1430533003.210274696 -5.193057231 -0.059194155 -0.087246563 -9.533909443 0.066914005 -3.999122522
1430533003.220274687 -5.190316385 -0.058414075 -0.081479311 -9.550176707 0.264663439 -4.020222835
1430533003.230274677 -5.191562755 -0.063537665 -0.084381515 -9.554074464 0.450187896 -3.975946172
1430533003.240274668 -5.192188273 -0.061699157 -0.084407498 -9.550629850 0.672923287 -3.979745068
1430533003.250274658 -5.192374984 -0.060091908 -0.082194422 -9.518776789 0.886496110 -3.896498714
1430533003.260274649 -5.191000217 -0.059801613 -0.086315416 -9.560629479 1.071251474 -3.880909864
1430533003.270274639 -5.190245486 -0.060062695 -0.085872349 -9.539648752 1.232053396 -3.830615097
1430533003.280274630 -5.192895295 -0.059181001 -0.084203509 -9.539996170 1.390636117 -3.773035074
1430533003.290274620 -5.191334027 -0.058595932 -0.083679297 -9.547995523 1.641289206 -3.642809175
1430533003.300274611 -5.191341118 -0.059042250 -0.083044184 -9.572388713 1.802238306 -3.539105706
1430533003.310274601 -5.355164714 0.027595903 -0.117765224 -9.347241367 1.015318177 -3.903479838
1430533003.320274591 -5.354777950 0.029890288 -0.117641163 -9.332656111 1.216173271 -3.847450050
1430533003.330274582 -5.355814948 0.029820310 -0.119059564 -9.313846651 1.384743751 -3.759336377
1430533003.340274572 -5.352405361 0.024779793 -0.118557732 -9.315736205 1.567819474 -3.723181120
1430533003.350274563 -5.353862124 0.028319578 -0.116244572 -9.325148285 1.752597980 -3.634153863
1430533003.360274553 -5.355902074 0.027835239 -0.118650700 -9.322498127 1.949619184 -3.512117040
1430533003.370274544 -5.355482402 0.027706311 -0.119276512 -9.267718751 2.145575302 -3.412047355
1430533003.380274534 -5.355105654 0.030945451 -0.118559974 -9.340612382 2.305849298 -3.354910753
1430533003.390274525 -5.327944143 0.033648031 -0.064964618 -9.002513216 1.091119045 -3.733566372
1430533003.400274515 -5.326635033 0.030997317 -0.068205848 -9.038564819 1.318224150 -3.718552277
1430533003.410274506 -5.327321601 0.030456350 -0.066104882 -9.056861709 1.469743835 -3.624257088
1430533003.420274496 -5.328785016 0.030770616 -0.066540175 -9.012745345 1.653773260 -3.564505334
1430533003.430274487 -5.328270695 0.031000446 -0.066091344 -9.051194632 1.815028226 -3.470549547
1430533003.440274477 -5.327584802 0.030162312 -0.065869902 -9.026891788 2.036188016 -3.382375082
1430533003.450274467 -5.328926299 0.027766068 -0.067369221 -9.054785029 2.170110859 -3.280227823
1430533003.460274458 -5.330815380 0.032202629 -0.069519775 -9.021269897 2.327451312 -3.195932302
1430533003.470274448 -5.328288538 0.030116583 -0.063904426 -9.008385626 2.475722229 -3.058489842
1430533003.480274439 -5.329944476 0.032297203 -0.064785339 -9.013325374 2.645358845 -2.932749108
1430533003.490274429 -5.330473278 0.032782038 -0.069518017 -9.044484456 2.733734130 -2.779147297
1430533003.500274420 -5.332649798 0.030708570 -0.067757913 -9.090465950 2.941909534 -2.624561046
1430533003.510274410 -5.325295634 0.032444566 -0.068073884 -9.063197525 3.046749889 -2.514490806
1430533003.520274401 -5.329823773 0.033518898 -0.065983789 -9.052567567 3.154742933 -2.344401088
1430533003.530274391 -5.329187079 0.031872279 -0.065246645 -9.007651315 3.267729491 -2.182873799
1430533003.540274382 -5.329925191 0.034107846 -0.067857816 -9.043740934 3.358142420 -1.987912072
1430533003.550274372 -5.326977426 0.033072975 -0.065709510 -9.012937821 3.460845758 -1.799820221
1430533003.560274363 -5.328429007 0.030671897 -0.066198069 -9.060380850 3.592175221 -1.660384739
1430533003.570274353 -5.331187528 0.030792845 -0.064168140 -9.029668744 3.593247584 -1.467260931
1430533003.580274343 -5.325812646 0.033577589 -0.068009756 -9.014149356 3.691486058 -1.296374502
1430533003.590274334 -5.328915226 0.029619815 -0.066039734 -9.056469047 3.734122431 -1.073644289
1430533003.600274324 -5.327535584 0.029127934 -0.068303792 -9.063899414 3.764804866 -0.856279578
1430533003.610274315 -5.365829403 -0.083451202 -0.128053675 -8.917337629 3.444921022 0.360680238
1430533003.620274305 -5.364314539 -0.084983874 -0.124617597 -8.879880038 3.426614824 0.531510889
1430533003.630274296 -5.361771660 -0.086416997 -0.124567027 -8.887506178 3.355229948 0.731658535
1430533003.640274286 -5.361085259 -0.083877814 -0.125534731 -8.888589715 3.308566496 0.909664558
1430533003.650274277 -5.364415832 -0.085530614 -0.129137794 -8.894734822 3.249876079 1.078601143
1430533003.660274267 -5.364511911 -0.084538914 -0.126523901 -8.909818068 3.164131415 1.272387770
1430533003.670274258 -5.363955140 -0.084761937 -0.124378741 -8.890265272 3.079913905 1.421739508
1430533003.680274248 -5.364199818 -0.083676827 -0.125756643 -8.946745859 2.982660801 1.577864425
1430533003.690274239 -5.366122003 -0.085404582 -0.125874846 -8.957743614 2.872195936 1.752355707
1430533003.700274229 -5.364714933 -0.082006039 -0.122436547 -8.913043354 2.774372133 1.896197752
1430533003.710274220 -5.365675698 -0.084418175 -0.124419089 -8.914051486 2.637048598 2.048881382
1430533003.720274210 -5.306061308 -0.006886357 -0.106232312 -8.717495436 3.009390346 0.929252161
1430533003.730274200 -5.299771099 -0.009243531 -0.102022523 -8.736444097 2.897913085 1.078568116
1430533003.740274191 -5.302882494 -0.011808501 -0.103247740 -8.766026294 2.799898437 1.265210440
1430533003.750274181 -5.299561144 -0.009274646 -0.105673364 -8.736423175 2.743246582 1.330448140
1430533003.760274172 -5.303489652 -0.008747218 -0.104129739 -8.732625118 2.648325376 1.530678605
1430533003.770274162 -5.304962708 -0.008173003 -0.109608990 -8.730813501 2.577469029 1.634698359
1430533003.780274153 -5.303212953 -0.009032283 -0.107686636 -8.774746986 2.475349903 1.811771492
1430533003.790274143 -5.304745843 -0.009493172 -0.103606603 -8.760568643 2.354080213 1.867205057
1430533003.800274134 -5.301830189 -0.011261301 -0.106046699 -8.770384391 2.210434688 1.988146127
1430533003.810274124 -5.051324968 0.083357018 -0.046665566 -9.559268077 -0.624186050 2.241823291
1430533003.820274115 -5.046528527 0.082951993 -0.046131163 -9.548165703 -0.758476584 2.139308907
1430533003.830274105 -5.051135484 0.080181688 -0.048194631 -9.527953180 -0.924707243 2.140855239
1430533003.840274096 -5.050460588 0.082493965 -0.040728999 -9.553099644 -1.003070321 2.075153531
1430533003.850274086 -5.048388635 0.081145252 -0.047929651 -9.568349361 -1.121721858 1.984286213
1430533003.860274076 -5.047943927 0.083404612 -0.045936512 -9.542900336 -1.172665673 1.908497154
1430533003.870274067 -5.051093774 0.084660184 -0.045376454 -9.541544139 -1.289733357 1.826358486
1430533003.880274057 -5.048343272 0.084905998 -0.046124505 -9.576866499 -1.397950107 1.738740131
1430533003.890274048 -5.255744698 -0.016054808 -0.050641083 -9.633729605 -1.145200014 1.139137454
1430533003.900274038 -5.254258664 -0.015684856 -0.052714836 -9.590372859 -1.198891820 1.069412818
1430533003.910274029 -5.254813338 -0.016303361 -0.050830821 -9.619184993 -1.327076672 1.050679698
1430533003.920274019 -5.252384702 -0.013892553 -0.051789645 -9.612638259 -1.353138606 0.956369766
1430533003.930274010 -5.250069366 -0.010750630 -0.048213481 -9.573609684 -1.404023783 0.915339789
1430533003.940274000 -5.254325092 -0.013582211 -0.055486704 -9.582589145 -1.477934395 0.811626135
1430533003.950273991 -5.254689283 -0.014140964 -0.050369501 -9.590846422 -1.557452352 0.700725014
1430533003.960273981 -5.254633087 -0.016439489 -0.052236084 -9.613478895 -1.562725881 0.646962065
1430533003.970273972 -5.252282366 -0.013627794 -0.052066119 -9.631804290 -1.624000352 0.576200941
1430533003.980273962 -5.252013160 -0.011976156 -0.050414244 -9.607920114 -1.710701723 0.502775641
1430533003.990273952 -5.331835531 -0.048169010 -0.085961331 -9.479593591 -1.996893498 0.247464712
1430533004.000273943 -5.331020517 -0.045855510 -0.088584226 -9.474159691 -2.024952584 0.131527323
1430533004.010273933 -5.328727662 -0.048864642 -0.084925263 -9.435266442 -2.073618995 0.044503648
1430533004.020273924 -5.334480629 -0.043930009 -0.086302374 -9.498594536 -2.063858793 -0.104545909
1430533004.030273914 -5.328017201 -0.044478768 -0.084193482 -9.460276787 -2.067697309 -0.183072386
1430533004.040273905 -5.329088630 -0.048775723 -0.083523385 -9.452495478 -2.064387682 -0.340002398
1430533004.050273895 -5.328316115 -0.046511405 -0.082434829 -9.412660749 -2.041513718 -0.416319649
1430533004.060273886 -5.330735603 -0.047941397 -0.083615326 -9.455546780 -2.056274272 -0.506925010
1430533004.070273876 -5.327676756 -0.046883180 -0.084129944 -9.442410277 -2.032961267 -0.648466962
1430533004.080273867 -5.332663428 -0.047699346 -0.083802455 -9.475570586 -1.982359684 -0.714139643
1430533004.090273857 -5.293594835 -0.009497572 -0.099905265 -8.767409369 -3.848885074 1.326742081
1430533004.100273848 -5.292827432 -0.011032291 -0.098949614 -8.817214518 -3.983701535 1.113260941
1430533004.110273838 -5.297550278 -0.009201107 -0.098574637 -8.770239255 -4.000713613 0.904219471
1430533004.120273829 -5.294711085 -0.010020970 -0.100195404 -8.769683420 -4.073515714 0.673657777
1430533004.130273819 -5.293230328 -0.006922214 -0.101095975 -8.784850228 -4.069256391 0.454093510
1430533004.140273809 -5.295365725 -0.006595312 -0.101975806 -8.750497168 -4.173773022 0.207108402
1430533004.150273800 -5.292640711 -0.009799022 -0.104511549 -8.743430927 -4.198433783 0.000765236
1430533004.160273790 -5.294283374 -0.008340376 -0.101141932 -8.729131072 -4.205251884 -0.241695958
1430533004.170273781 -5.292001450 -0.012377452 -0.102340581 -8.779843581 -4.187558159 -0.454771005
1430533004.180273771 -5.294357901 -0.007223843 -0.101878731 -8.748306604 -4.152630923 -0.719429132
1430533004.190273762 -5.295313308 -0.004905282 -0.102509498 -8.711652446 -4.151609795 -0.900345414
1430533004.200273752 -5.302340801 0.106641932 -0.066564666 -9.047174124 -3.985854440 -2.323360760
1430533004.210273743 -5.306903517 0.106546115 -0.067752126 -9.015423463 -3.862595823 -2.507826029
1430533004.220273733 -5.305082617 0.103512716 -0.067110432 -9.005696279 -3.752215103 -2.742372482
1430533004.230273724 -5.304372859 0.103158079 -0.068775271 -9.023576212 -3.579541420 -2.961361050
1430533004.240273714 -5.304271823 0.105758893 -0.067672131 -9.013731361 -3.415632357 -3.154563469
1430533004.250273705 -5.305307714 0.107640969 -0.070224713 -9.018108688 -3.260323061 -3.370844250
1430533004.260273695 -5.302960000 0.106625993 -0.068091533 -8.993734403 -3.114124210 -3.564059388
1430533004.270273685 -5.306116226 0.104856145 -0.069778001 -8.961553955 -2.906254384 -3.711475324
1430533004.280273676 -5.303633481 0.106845082 -0.067283690 -8.995175091 -2.725444883 -3.878197904
1430533004.290273666 -5.302817649 0.106039794 -0.069020924 -8.972186567 -2.520168555 -4.032588200
1430533004.300273657 -5.287617853 -0.014536487 -0.097160598 -8.898958996 -2.714803809 -3.269137011
1430533004.310273647 -5.287189197 -0.013252129 -0.095096599 -8.892259748 -2.567027802 -3.410624154
1430533004.320273638 -5.284483847 -0.014406477 -0.094243009 -8.900876769 -2.412434054 -3.541547004
1430533004.330273628 -5.286271167 -0.013888303 -0.097063627 -8.886034812 -2.211966877 -3.670307397
1430533004.340273619 -5.287187634 -0.012268384 -0.100147540 -8.849049729 -2.036400788 -3.821823456
1430533004.350273609 -5.286678657 -0.013410560 -0.097196426 -8.867124798 -1.792364620 -3.883060540
1430533004.360273600 -5.285557804 -0.016468653 -0.097110047 -8.866065403 -1.667962992 -3.999932856
1430533004.370273590 -5.286968675 -0.013880852 -0.094747320 -8.862271251 -1.447137926 -4.093768003
1430533004.380273581 -5.284336326 -0.014054565 -0.096889742 -8.852529934 -1.264610570 -4.123789393
1430533004.390273571 -5.288372104 -0.014842252 -0.098145418 -8.870819186 -1.009644759 -4.194820632
1430533004.400273561 -5.286205241 -0.012605549 -0.093575393 -8.876979336 -0.830735612 -4.266990069
1430533004.410273552 -5.176886510 -0.065394876 -0.073808273 -9.549518059 0.033355976 -3.663123226
1430533004.420273542 -5.178418747 -0.069798967 -0.073019704 -9.560939290 0.182231673 -3.668834367
1430533004.430273533 -5.174785713 -0.068232926 -0.072411512 -9.576992052 0.346471376 -3.641123708
1430533004.440273523 -5.177587259 -0.064924699 -0.073991073 -9.568769135 0.563163234 -3.666851070
1430533004.450273514 -5.177913676 -0.066409789 -0.074217850 -9.603629212 0.757966501 -3.612316534
1430533004.460273504 -5.173820815 -0.065516167 -0.073647125 -9.546975883 0.906922072 -3.522811736
1430533004.470273495 -5.176580895 -0.064981324 -0.072285220 -9.561738864 1.049001742 -3.453827639
1430533004.480273485 -5.176303255 -0.066228697 -0.073157270 -9.567383922 1.198434691 -3.403242724
1430533004.490273476 -5.179257763 -0.062940098 -0.073465797 -9.605244128 1.406641208 -3.372003120
1430533004.500273466 -5.176697947 -0.065017023 -0.075903996 -9.556025798 1.574237520 -3.273287068
1430533004.510273457 -5.395488986 0.046124747 -0.134718572 -9.254299776 1.401566898 -4.046049433
1430533004.520273447 -5.392538768 0.042550824 -0.135857599 -9.238766094 1.577012727 -4.013821826
1430533004.530273438 -5.392292722 0.044336580 -0.137636417 -9.277617929 1.786856633 -3.909372413
1430533004.540273428 -5.394143340 0.041441472 -0.137096928 -9.225560281 1.963592863 -3.817324252
1430533004.550273418 -5.391857195 0.040690196 -0.137218257 -9.267181567 2.123103822 -3.737363509
1430533004.560273409 -5.390674589 0.042557012 -0.136290367 -9.271070104 2.344695807 -3.613116227
1430533004.570273399 -5.391140906 0.042817559 -0.136737169 -9.293719001 2.579409098 -3.503281369
1430533004.580273390 -5.393717432 0.044110221 -0.136372626 -9.275561594 2.691706805 -3.364851243
1430533004.590273380 -5.325640844 0.011059868 -0.054203068 -9.009883116 1.523328133 -3.482217421
1430533004.600273371 -5.325136036 0.007580581 -0.057670379 -8.966970345 1.694114221 -3.432370951
1430533004.610273361 -5.325819083 0.008006514 -0.059626716 -8.987981866 1.862960091 -3.307625818
1430533004.620273352 -5.325825981 0.005382796 -0.055010305 -8.958427262 2.025788574 -3.223643170
1430533004.630273342 -5.325842395 0.011703222 -0.054366935 -9.000548934 2.199357333 -3.115965913
1430533004.640273333 -5.324260462 0.010267881 -0.057252727 -8.990046989 2.341862797 -3.013379463
1430533004.650273323 -5.326636067 0.007468193 -0.056546346 -8.980837213 2.522778785 -2.881441205
1430533004.660273314 -5.325585463 0.009063005 -0.053943490 -9.022176268 2.638216722 -2.747880586
1430533004.670273304 -5.327488336 0.007852512 -0.056041602 -9.021220998 2.765648831 -2.624649314
1430533004.680273294 -5.325933450 0.011117945 -0.057609499 -8.980256246 2.879137906 -2.456841269
1430533004.690273285 -5.326755994 0.010319477 -0.055342218 -9.020015762 2.993783010 -2.299282689
1430533004.700273275 -5.327509645 0.012985942 -0.056015494 -8.985330486 3.108760967 -2.173495101
1430533004.710273266 -5.324427729 0.008328380 -0.058106785 -9.016462153 3.237725871 -1.997784243
1430533004.720273256 -5.328520190 0.010719012 -0.053514956 -8.970479471 3.275855528 -1.829404326
1430533004.730273247 -5.325662684 0.011010580 -0.058515305 -9.008779613 3.394429969 -1.639876524
1430533004.740273237 -5.327035785 0.009530977 -0.056423429 -9.026207426 3.429870720 -1.425329913
1430533004.750273228 -5.324364970 0.009159889 -0.056447895 -9.029649679 3.539319851 -1.265359326
1430533004.760273218 -5.322211186 0.012846070 -0.055297698 -8.989880953 3.568927201 -1.129120275
1430533004.770273209 -5.328527191 0.009020883 -0.056054518 -9.023911917 3.612235861 -0.930599962
1430533004.780273199 -5.323545937 0.007872871 -0.055779018 -9.037719114 3.672078365 -0.691808273
1430533004.790273190 -5.326415190 0.012755916 -0.054848781 -8.974693436 3.672791570 -0.511665033
1430533004.800273180 -5.322080021 0.007268906 -0.057466080 -9.023447115 3.679848147 -0.355517419
1430533004.810273170 -5.367561212 -0.064367441 -0.097896504 -8.898730010 3.499918911 0.050182886
1430533004.820273161 -5.366439660 -0.063972871 -0.101661589 -8.873210469 3.464055241 0.255594472
1430533004.830273151 -5.369921838 -0.061619663 -0.099187406 -8.869756774 3.405218977 0.427860936
1430533004.840273142 -5.368844156 -0.061155706 -0.094869004 -8.880208722 3.379631039 0.646714446
1430533004.850273132 -5.365826268 -0.061325565 -0.099047272 -8.897017561 3.347218428 0.848279630
1430533004.860273123 -5.365529869 -0.062290785 -0.099087986 -8.863711090 3.310340810 0.990470697
1430533004.870273113 -5.366997721 -0.064094887 -0.099662489 -8.933873286 3.200208849 1.152541777
1430533004.880273104 -5.364872333 -0.062778299 -0.096882151 -8.924239115 3.175265115 1.349794825
1430533004.890273094 -5.365973796 -0.062075014 -0.097257236 -8.924844186 3.054646719 1.472838490
1430533004.900273085 -5.370573820 -0.062941853 -0.099410767 -8.915354607 2.947145771 1.659812998
1430533004.910273075 -5.256643626 0.027969137 -0.093496036 -9.089932125 2.161397585 1.340740064
1430533004.920273066 -5.254580617 0.027784488 -0.091005818 -9.000726437 2.033326243 1.465316106
1430533004.930273056 -5.258162030 0.028834369 -0.090243395 -9.059228461 1.973119117 1.571987300
1430533004.940273046 -5.256990495 0.025512170 -0.091591248 -9.055833255 1.869958513 1.650586591
1430533004.950273037 -5.259380377 0.025973090 -0.090017293 -9.059864515 1.772876440 1.751769332
1430533004.960273027 -5.258935512 0.026464401 -0.095279254 -9.059767804 1.666860489 1.840474471
1430533004.970273018 -5.257494495 0.027753202 -0.091552586 -9.042923757 1.531511513 1.893526382
1430533004.980273008 -5.257272108 0.025600543 -0.094579523 -9.020656214 1.424884154 1.967202705
1430533004.990272999 -5.256310078 0.026942222 -0.089070871 -9.090370042 1.291169109 2.027279545
1430533005.000272989 -5.256151641 0.026821199 -0.093541034 -9.044792475 1.198106842 2.091290537
1430533005.010272980 -5.067443606 0.094588462 -0.056285627 -9.417168176 -0.603073048 2.242046842
1430533005.020272970 -5.070896559 0.094272343 -0.055542441 -9.442612087 -0.677602385 2.287388167
1430533005.030272961 -5.067580939 0.093311299 -0.057812653 -9.398818953 -0.811495101 2.180847108
1430533005.040272951 -5.068348400 0.094048681 -0.052901167 -9.418278674 -0.928451415 2.098724122
1430533005.050272942 -5.065003047 0.091213068 -0.054912849 -9.442690175 -1.055895096 2.076680833
1430533005.060272932 -5.065639831 0.095579156 -0.053592220 -9.438923179 -1.122259088 1.999452425
1430533005.070272923 -5.068288176 0.094257462 -0.054808291 -9.456383733 -1.269499975 1.893804526
1430533005.080272913 -5.068387148 0.094850908 -0.059440401 -9.451362699 -1.331444476 1.832424059
1430533005.090272903 -5.263362798 -0.032449142 -0.044952590 -9.538048223 -1.167503316 0.987900553
1430533005.100272894 -5.261689241 -0.031407481 -0.046463087 -9.561188862 -1.221068775 0.925182103
1430533005.110272884 -5.260947854 -0.030927898 -0.044891934 -9.531308602 -1.274027781 0.825393774
1430533005.120272875 -5.261871652 -0.033472199 -0.043649074 -9.541107935 -1.356447379 0.759985026
1430533005.130272865 -5.261257141 -0.033168434 -0.044014926 -9.546057409 -1.366134953 0.685705775
1430533005.140272856 -5.259388280 -0.033996573 -0.043887238 -9.530753748 -1.412118132 0.627203977
1430533005.150272846 -5.260890228 -0.036856407 -0.043356408 -9.554493639 -1.445818517 0.517586705
1430533005.160272837 -5.262563649 -0.033716237 -0.047625880 -9.546862132 -1.500066917 0.451635892
1430533005.170272827 -5.260859633 -0.035811135 -0.043978769 -9.545810726 -1.533944260 0.395514918
1430533005.180272818 -5.261719665 -0.034784770 -0.042416241 -9.528508172 -1.575070368 0.301180878
1430533005.190272808 -5.341251239 -0.050849125 -0.090871350 -9.285744642 -2.406977065 0.306631296
1430533005.200272799 -5.341518756 -0.044236007 -0.093184592 -9.308929810 -2.434406115 0.155084448
1430533005.210272789 -5.341658905 -0.048375179 -0.093098298 -9.224528295 -2.441507610 0.004480914
1430533005.220272779 -5.340474299 -0.047575291 -0.092628920 -9.248752674 -2.433257721 -0.126995487
1430533005.230272770 -5.341081141 -0.044075524 -0.091754110 -9.239673832 -2.428609488 -0.240792850
1430533005.240272760 -5.343241635 -0.045887060 -0.093532180 -9.278470426 -2.466708150 -0.383860100
1430533005.250272751 -5.340386506 -0.045514802 -0.089347960 -9.268081285 -2.449023629 -0.491203305
1430533005.260272741 -5.342320625 -0.049789297 -0.093977223 -9.215636266 -2.440970536 -0.642939755
1430533005.270272732 -5.340271629 -0.046114338 -0.091266038 -9.282990646 -2.388911004 -0.749790320
1430533005.280272722 -5.340886619 -0.046701281 -0.092271922 -9.236265149 -2.400701282 -0.888178875
1430533005.290272713 -5.303582796 0.006314720 -0.097419672 -9.000215790 -3.936725591 1.697068249
1430533005.300272703 -5.300198093 0.005864415 -0.096131663 -9.001211869 -4.045778245 1.526430296
1430533005.310272694 -5.298010939 0.006839419 -0.094614053 -8.982419159 -4.134505092 1.262787672
1430533005.320272684 -5.301611110 0.009606548 -0.095959507 -9.004536489 -4.238704082 1.054858697
1430533005.330272675 -5.300292868 0.006732501 -0.095767627 -8.948997223 -4.242020303 0.807154148
1430533005.340272665 -5.301853949 0.007079485 -0.095759860 -8.959953470 -4.293161110 0.606992372
1430533005.350272655 -5.300231132 0.007788034 -0.093700671 -8.943144330 -4.364412426 0.331207841
1430533005.360272646 -5.297891217 0.005291884 -0.094167700 -8.947375996 -4.361111979 0.080439720
1430533005.370272636 -5.301085390 0.004999903 -0.094481779 -8.926520978 -4.406626435 -0.145299834
1430533005.380272627 -5.303542722 0.006034432 -0.097047775 -8.955104629 -4.400624475 -0.378085125
1430533005.390272617 -5.301911106 0.007931359 -0.096071482 -8.981346533 -4.395846135 -0.602869212
1430533005.400272608 -5.269884695 0.112177521 -0.065744507 -9.078259216 -3.795213865 -2.562800127
1430533005.410272598 -5.268029357 0.114581928 -0.067734108 -9.048194885 -3.702425981 -2.787156309
1430533005.420272589 -5.269030500 0.110383070 -0.065318575 -9.044621990 -3.557224057 -3.019086429
1430533005.430272579 -5.271817687 0.111019715 -0.068501033 -9.014972739 -3.418681898 -3.187663048
1430533005.440272570 -5.268739582 0.112693105 -0.068225278 -9.033264669 -3.246020549 -3.399303472
1430533005.450272560 -5.269478208 0.114813904 -0.067926005 -9.070306718 -3.076770599 -3.519963781
1430533005.460272551 -5.263680229 0.112014569 -0.065159782 -9.076649066 -2.872708283 -3.749087525
1430533005.470272541 -5.268324686 0.112016953 -0.065945146 -9.050526353 -2.705421167 -3.864397486
1430533005.480272532 -5.269472342 0.111869250 -0.067668802 -9.039094804 -2.459603651 -4.030327141
1430533005.490272522 -5.268057757 0.115051768 -0.067854426 -8.977584356 -2.213909756 -4.182004399
1430533005.500272512 -5.294501770 -0.009549177 -0.089530255 -8.912785656 -2.301473021 -3.736824430
1430533005.510272503 -5.295969091 -0.005225644 -0.088318130 -8.928478284 -2.098452704 -3.869510989
1430533005.520272493 -5.299903916 -0.008249591 -0.088127171 -8.917453239 -1.870796157 -3.954343495
1430533005.530272484 -5.298085933 -0.010802723 -0.086900097 -8.920874455 -1.691576162 -4.091935549
1430533005.540272474 -5.295860740 -0.009201089 -0.088623640 -8.905620912 -1.494642566 -4.126442234
1430533005.550272465 -5.295934516 -0.008408228 -0.089387001 -8.894644562 -1.253954548 -4.229783778
1430533005.560272455 -5.296076845 -0.007406271 -0.087450152 -8.907793755 -1.038322883 -4.279872339
1430533005.570272446 -5.300204416 -0.006018641 -0.088468186 -8.871099843 -0.827257071 -4.367446678
1430533005.580272436 -5.300084521 -0.008091378 -0.088042487 -8.914759301 -0.632162152 -4.380318139
1430533005.590272427 -5.297507993 -0.009981460 -0.091515969 -8.903601183 -0.388821753 -4.445778345
1430533005.600272417 -5.294808808 -0.008874994 -0.086533332 -8.915113263 -0.154941363 -4.445260737
1430533005.610272408 -5.204063681 -0.050163762 -0.100253539 -9.472064087 0.255712660 -4.041916106
1430533005.620272398 -5.202772512 -0.050533885 -0.094946464 -9.423756250 0.447854227 -4.004145547
1430533005.630272388 -5.202581535 -0.049626995 -0.095689913 -9.461276890 0.671509173 -3.985811145
1430533005.640272379 -5.200684283 -0.051874774 -0.097866637 -9.468476182 0.879749893 -3.945378390
1430533005.650272369 -5.200551010 -0.051528626 -0.093946647 -9.427994693 1.061370494 -3.917702519
1430533005.660272360 -5.199861089 -0.053919768 -0.096692964 -9.480012997 1.269305829 -3.794866610
1430533005.670272350 -5.199233892 -0.053014402 -0.094394869 -9.479209353 1.372007249 -3.740067395
1430533005.680272341 -5.201825471 -0.051751393 -0.096068787 -9.446773308 1.594101552 -3.670184486
1430533005.690272331 -5.198779238 -0.051957603 -0.096156580 -9.485697553 1.751592321 -3.597413346
1430533005.700272322 -5.203482438 -0.051552027 -0.094258218 -9.477349678 1.950755248 -3.493262142
1430533005.710272312 -5.449425625 0.050936261 -0.137159245 -9.445443998 1.524358580 -3.835716019
1430533005.720272303 -5.448732567 0.051378575 -0.134263977 -9.400211362 1.734990614 -3.759684835
1430533005.730272293 -5.451132562 0.052440887 -0.136718952 -9.404425518 1.935325319 -3.703044080
1430533005.740272284 -5.450044883 0.051379033 -0.137288581 -9.397901620 2.114508252 -3.609846610
1430533005.750272274 -5.452060229 0.050744395 -0.139475188 -9.443161679 2.238635235 -3.497371285
1430533005.760272264 -5.450363647 0.052214058 -0.136993209 -9.425550855 2.471848026 -3.366103949
1430533005.770272255 -5.449528112 0.052555665 -0.138209811 -9.452629587 2.615254078 -3.224956874
1430533005.780272245 -5.448665161 0.049599888 -0.134223376 -9.452965747 2.775180894 -3.129339202
1430533005.790272236 -5.449358160 0.051248092 -0.135861229 -9.417253282 2.885908937 -2.956708828
1430533005.800272226 -5.450071720 0.048293439 -0.139278078 -9.428701522 3.009756859 -2.801976388
1430533005.810272217 -5.408683526 0.046765810 -0.045194908 -9.004640236 2.111536031 -2.466797662
1430533005.820272207 -5.404059275 0.049399591 -0.048980373 -9.007699338 2.195414398 -2.355637101
1430533005.830272198 -5.407338933 0.048624946 -0.049268815 -8.997649746 2.283635645 -2.266401402
1430533005.840272188 -5.408620382 0.047320762 -0.048098081 -9.004688075 2.362905797 -2.125984193
1430533005.850272179 -5.407836562 0.047969787 -0.044889252 -8.976631739 2.506226445 -1.999817850
1430533005.860272169 -5.406446175 0.046361357 -0.049124706 -9.001135002 2.645452388 -1.877768798
1430533005.870272160 -5.408485818 0.047100025 -0.049332089 -9.033123301 2.672524609 -1.736499939
1430533005.880272150 -5.403815707 0.049134809 -0.048932049 -8.996628818 2.767909846 -1.593343082
1430533005.890272141 -5.406936700 0.048500061 -0.046163422 -9.005365838 2.848610550 -1.487807086
1430533005.900272131 -5.407525631 0.050136300 -0.049093146 -9.038170571 2.926838627 -1.327665223
1430533005.910272121 -5.183108156 -0.033996493 -0.084943427 -8.759744550 3.798926355 -2.503272730
1430533005.920272112 -5.182716053 -0.030575042 -0.088315623 -8.784600686 3.889586942 -2.287585425
1430533005.930272102 -5.182430909 -0.032557523 -0.084225741 -8.793778424 3.978870875 -2.087396553
1430533005.940272093 -5.185893419 -0.033962458 -0.088448277 -8.774485003 4.021590188 -1.944931635
1430533005.950272083 -5.184679822 -0.030579764 -0.084281686 -8.769252893 4.165390749 -1.714494020
1430533005.960272074 -5.184530935 -0.029133469 -0.089874213 -8.757857287 4.198638163 -1.461383268
1430533005.970272064 -5.180213321 -0.032644921 -0.085777578 -8.801655848 4.256740062 -1.283108524
1430533005.980272055 -5.182856659 -0.033840550 -0.089064088 -8.808970730 4.318896516 -1.071869593
1430533005.990272045 -5.183462199 -0.032717776 -0.087056422 -8.792765394 4.376550130 -0.841367995
1430533006.000272036 -5.183685456 -0.030636287 -0.087032068 -8.813643940 4.389088364 -0.593741529
1430533006.010272026 -5.349817235 -0.071645049 -0.145206526 -9.028223250 3.221310254 0.942914878
1430533006.020272017 -5.348941828 -0.071754123 -0.142981745 -9.015930519 3.187504601 1.150954007
1430533006.030272007 -5.346453981 -0.070544042 -0.144512620 -8.994174736 3.079858204 1.299585346
1430533006.040271997 -5.349965615 -0.071277720 -0.144008413 -9.047649315 2.941854238 1.475799203
1430533006.050271988 -5.346911475 -0.071616154 -0.144545024 -9.057175250 2.876447584 1.638460234
1430533006.060271978 -5.348020600 -0.071209142 -0.145696211 -9.057150826 2.810749140 1.763354878
1430533006.070271969 -5.348762478 -0.071967822 -0.145937594 -9.030485842 2.620895004 1.933419980
1430533006.080271959 -5.347908495 -0.072649895 -0.143521056 -9.018054310 2.525519917 2.098075346
1430533006.090271950 -5.350378881 -0.072767031 -0.145824125 -9.035703937 2.378165652 2.207645060
1430533006.100271940 -5.351334180 -0.072375513 -0.146515192 -9.052863804 2.213690540 2.336197331
1430533006.110271931 -5.169513398 0.032560385 -0.077501311 -9.235369980 0.617535315 1.577327553
1430533006.120271921 -5.170452338 0.033095040 -0.075786481 -9.265809987 0.475523477 1.626951711
1430533006.130271912 -5.167355736 0.034330718 -0.077900983 -9.266458714 0.431840583 1.608137876
1430533006.140271902 -5.165621613 0.034289391 -0.077801947 -9.283440127 0.341623672 1.651436070
1430533006.150271893 -5.167792231 0.036786374 -0.078421957 -9.298406319 0.259722923 1.662479771
1430533006.160271883 -5.168022184 0.033961708 -0.080340459 -9.248910815 0.131257480 1.666818768
1430533006.170271873 -5.168811285 0.034876173 -0.076609961 -9.254211577 0.027834918 1.633169058
1430533006.180271864 -5.172047909 0.037177798 -0.081356454 -9.273607652 -0.036078777 1.630650874
1430533006.190271854 -5.169117886 0.030611757 -0.077091533 -9.245322619 -0.126041304 1.648391857
1430533006.200271845 -5.171377047 0.036079102 -0.078545353 -9.281357124 -0.256263811 1.600667313
1430533006.210271835 -5.199812148 0.007082199 -0.045973746 -9.357562921 -0.642595209 1.983055690
1430533006.220271826 -5.199737623 0.004525666 -0.044626844 -9.317480465 -0.727201954 1.889091953
1430533006.230271816 -5.202510301 0.006171634 -0.040790784 -9.365975990 -0.876330438 1.895326523
1430533006.240271807 -5.201319610 0.008228129 -0.044256329 -9.320126266 -0.951151760 1.808177266
1430533006.250271797 -5.202826336 0.006340892 -0.041547203 -9.284667905 -1.063584459 1.756034243
1430533006.260271788 -5.197753283 0.007036825 -0.038828950 -9.343313708 -1.177413013 1.739789626
1430533006.270271778 -5.201757947 0.006364710 -0.043632680 -9.336389803 -1.231960483 1.631575429
1430533006.280271769 -5.200951662 0.003582421 -0.045109140 -9.310402344 -1.377908876 1.578595865
1430533006.290271759 -5.199046959 0.007492263 -0.044547978 -9.342631527 -1.416948149 1.510391353
1430533006.300271749 -5.198615074 0.002304803 -0.042630074 -9.317101443 -1.496372585 1.426744697
1430533006.310271740 -5.197187844 0.006698335 -0.039750033 -9.309511821 -1.577946988 1.336709570
1430533006.320271730 -5.199408506 0.001262549 -0.042350560 -9.320158013 -1.623298408 1.245704826
1430533006.330271721 -5.202378834 0.006957424 -0.042731548 -9.333794867 -1.751308965 1.124623931
1430533006.340271711 -5.200113553 0.007004129 -0.043988818 -9.327448828 -1.817234750 1.024895392
1430533006.350271702 -5.202264716 0.007653232 -0.043669380 -9.301198226 -1.881365496 0.971943546
1430533006.360271692 -5.200248620 0.003446889 -0.041036117 -9.321957568 -1.907407758 0.857184631
1430533006.370271683 -5.202331381 0.004630991 -0.043478425 -9.330199517 -1.971431247 0.703284970
1430533006.380271673 -5.201911734 0.008700110 -0.042837172 -9.343607224 -2.042907444 0.615544589
1430533006.390271664 -5.323034052 -0.015249859 -0.100604364 -9.227753784 -1.003848020 3.876799228
1430533006.400271654 -5.323464654 -0.017927255 -0.099370216 -9.191912992 -1.164674300 3.823583705
1430533006.410271645 -5.325694928 -0.017937659 -0.098207272 -9.207673604 -1.381161370 3.745479113
1430533006.420271635 -5.322632734 -0.014643901 -0.095451238 -9.238189171 -1.617179044 3.670120746
1430533006.430271626 -5.324034722 -0.015101508 -0.096090172 -9.203106661 -1.821329233 3.584845778
1430533006.440271616 -5.324083441 -0.014470687 -0.097341323 -9.216520465 -2.042626272 3.509102555
1430533006.450271606 -5.325377941 -0.014707776 -0.098081411 -9.234558956 -2.232598104 3.336004436
1430533006.460271597 -5.326596283 -0.015490926 -0.099840151 -9.223143917 -2.415715979 3.237016653
1430533006.470271587 -5.323978237 -0.015137918 -0.098483106 -9.201044908 -2.589347047 3.098274667
1430533006.480271578 -5.323396829 -0.012444563 -0.097983128 -9.203320931 -2.732347686 2.921868768
1430533006.490271568 -5.324629466 -0.017900677 -0.100079311 -9.228561736 -2.936278600 2.800228967
1430533006.500271559 -5.322999628 -0.016331444 -0.099674416 -9.186582003 -3.075160566 2.649516941
1430533006.510271549 -5.323999074 -0.015404066 -0.099157689 -9.215625728 -3.237370583 2.459877763
1430533006.520271540 -5.322828872 -0.017190935 -0.099376288 -9.186099798 -3.381916011 2.271080391
1430533006.530271530 -5.322118267 -0.013964060 -0.098964107 -9.215794698 -3.495067300 2.084491416
1430533006.540271521 -5.324309961 -0.015548771 -0.096993732 -9.189177047 -3.613436043 1.914511227
1430533006.550271511 -5.323299577 -0.016917109 -0.098375813 -9.156676760 -3.713932847 1.716523086
1430533006.560271502 -5.324357138 -0.014782232 -0.099120276 -9.150296409 -3.847032048 1.488916593
1430533006.570271492 -5.325990688 -0.017298483 -0.096827637 -9.165751654 -3.871163424 1.297393796
1430533006.580271482 -5.324910350 -0.010987684 -0.102695047 -9.183773792 -4.016712901 1.063846274
1430533006.590271473 -5.327036764 -0.013942609 -0.098546849 -9.145618608 -4.057911167 0.861475008
1430533006.600271463 -5.202550346 0.118413312 -0.031191487 -9.001558585 -2.995564580 -4.064238628
1430533006.610271454 -5.206398770 0.117908339 -0.032251607 -8.994211847 -2.797987284 -4.225631672
1430533006.620271444 -5.206430252 0.114905756 -0.035751533 -9.007322698 -2.580985367 -4.430810896
1430533006.630271435 -5.207221406 0.119723980 -0.034072169 -8.984504276 -2.360004379 -4.598528451
1430533006.640271425 -5.204331148 0.118312872 -0.033239052 -8.999620868 -2.083417162 -4.685731476
1430533006.650271416 -5.206447117 0.116960872 -0.033032416 -8.984944974 -1.870067267 -4.810954474
1430533006.660271406 -5.207909078 0.122108299 -0.033475662 -9.002700551 -1.631769916 -4.918214686
1430533006.670271397 -5.203818045 0.116397856 -0.031284689 -8.947081865 -1.369211051 -5.000852546
1430533006.680271387 -5.203644437 0.119122461 -0.035940754 -8.933712307 -1.107202849 -5.102299337
1430533006.690271378 -5.205772231 0.116385891 -0.034278837 -8.948188644 -0.849307016 -5.150126762
1430533006.700271368 -5.312710308 -0.037856840 -0.106010936 -9.261646032 -2.442034147 -3.848993884
1430533006.710271358 -5.315171226 -0.035387337 -0.110832952 -9.235446215 -2.289149887 -3.930137015
1430533006.720271349 -5.312155861 -0.037800184 -0.106617567 -9.230668366 -2.062242899 -4.074190317
1430533006.730271339 -5.312317803 -0.038387104 -0.109680387 -9.240318756 -1.819448243 -4.179834860
1430533006.740271330 -5.315450806 -0.036876337 -0.106357045 -9.260651396 -1.605676814 -4.259649610
1430533006.750271320 -5.315883357 -0.038106915 -0.104572503 -9.288953793 -1.415583861 -4.337193986
1430533006.760271311 -5.311980973 -0.035346927 -0.107083480 -9.252833061 -1.221878704 -4.415448534
1430533006.770271301 -5.313615137 -0.035648676 -0.110151922 -9.239828132 -0.990896498 -4.483133927
1430533006.780271292 -5.316467509 -0.036186920 -0.108305983 -9.293588905 -0.753350193 -4.558324201
1430533006.790271282 -5.314664606 -0.038247631 -0.107332431 -9.268602276 -0.475155288 -4.586304214
1430533006.800271273 -5.314947378 -0.038195088 -0.111405032 -9.237882755 -0.283890176 -4.585156921
1430533006.810271263 -5.315959690 -0.035247594 -0.106786256 -9.245150839 -0.030006168 -4.558078606
1430533006.820271254 -5.313702161 -0.037295821 -0.110066376 -9.249506353 0.170961679 -4.587710974
1430533006.830271244 -5.315453368 -0.037349091 -0.107363574 -9.242904109 0.444429136 -4.574172991
1430533006.840271235 -5.315534222 -0.040186402 -0.107533269 -9.239563811 0.601720341 -4.588212325
1430533006.850271225 -5.312196458 -0.040657263 -0.106728105 -9.272999211 0.857242467 -4.518546473
1430533006.860271215 -5.316752080 -0.040806587 -0.109713552 -9.261578905 1.054930356 -4.446023359
1430533006.870271206 -5.314728006 -0.039561347 -0.107343395 -9.260471430 1.288320604 -4.386150738
1430533006.880271196 -5.314259005 -0.034876941 -0.108672598 -9.276431474 1.537024005 -4.355934388
1430533006.890271187 -5.315498057 -0.035152615 -0.108430661 -9.287658783 1.716680131 -4.240750527
1430533006.900271177 -5.315074312 -0.040206824 -0.107600948 -9.247572801 1.962229687 -4.172207509
1430533006.910271168 -5.312697752 -0.038863394 -0.107104811 -9.278051225 2.118594116 -4.047917812
1430533006.920271158 -5.313302599 -0.035603352 -0.108992728 -9.281397844 2.371771216 -3.962259536
1430533006.930271149 -5.315576654 -0.035602228 -0.110150247 -9.273028825 2.593659915 -3.785839739
1430533006.940271139 -5.311774277 -0.037564359 -0.108703134 -9.281656858 2.719980064 -3.675373107
1430533006.950271130 -5.314940400 -0.037326178 -0.105393158 -9.258666888 2.898516488 -3.511744183
1430533006.960271120 -5.315922295 -0.036699127 -0.107544854 -9.270420513 3.050136691 -3.362968654
1430533006.970271111 -5.313631311 -0.038065280 -0.106735176 -9.307321980 3.262394403 -3.182843648
1430533006.980271101 -5.317118231 -0.037919663 -0.108840823 -9.297086506 3.361949716 -3.026024130
1430533006.990271091 -5.374542560 0.065939908 -0.061550383 -8.917592816 1.914376441 -3.391997404
1430533007.000271082 -5.375135649 0.065967718 -0.062611788 -8.874930671 2.006137897 -3.312676102
1430533007.010271072 -5.377873341 0.064500357 -0.064420205 -8.912850527 2.239316233 -3.183692690
1430533007.020271063 -5.378381048 0.063368215 -0.063135944 -8.926319110 2.352733237 -3.133597066
1430533007.030271053 -5.374823201 0.063716183 -0.063572014 -8.908788378 2.544474201 -2.967992017
1430533007.040271044 -5.375505792 0.066081640 -0.061100808 -8.905498645 2.671767728 -2.830823773
1430533007.050271034 -5.374755402 0.065271214 -0.064979214 -8.889457381 2.784905644 -2.698229407
1430533007.060271025 -5.372878565 0.065492417 -0.063989332 -8.909000620 2.959892661 -2.542595903
1430533007.070271015 -5.373899697 0.066878811 -0.063982931 -8.901229060 3.099969955 -2.433630730
1430533007.080271006 -5.375069062 0.064898814 -0.062140369 -8.907582993 3.186489344 -2.268810148
1430533007.090270996 -5.374669306 0.063572030 -0.061283891 -8.919123635 3.289232858 -2.050079084
1430533007.100270987 -5.375192866 0.064446365 -0.063025936 -8.902028051 3.358635685 -1.894489120
1430533007.110270977 -5.165686671 -0.039385006 -0.082007433 -9.172472673 2.986232079 -3.408492528
1430533007.120270967 -5.165643381 -0.036366848 -0.084070125 -9.185990548 3.106355209 -3.239259065
1430533007.130270958 -5.167888965 -0.038537511 -0.082978766 -9.205700956 3.299193294 -3.075527443
1430533007.140270948 -5.167195062 -0.040278607 -0.083907478 -9.208446375 3.424946785 -2.914360164
1430533007.150270939 -5.164972627 -0.034947670 -0.082830946 -9.220028620 3.544664756 -2.706358283
1430533007.160270929 -5.167707960 -0.036104420 -0.082573178 -9.180829960 3.653228757 -2.518158886
1430533007.170270920 -5.168110277 -0.037960224 -0.082480655 -9.240284862 3.766323981 -2.315967856
1430533007.180270910 -5.169163734 -0.036560500 -0.082438053 -9.227917685 3.907515093 -2.154408932
1430533007.190270901 -5.165147146 -0.034728043 -0.085021142 -9.218100207 3.990707967 -1.936462298
1430533007.200270891 -5.164430445 -0.035722928 -0.082926544 -9.204065289 4.125844823 -1.728430159
1430533007.210270882 -5.371623741 -0.052797298 -0.122199574 -8.962948570 2.801188664 1.305665808
1430533007.220270872 -5.370165673 -0.052979959 -0.119927015 -8.966706693 2.719953823 1.508200447
1430533007.230270863 -5.371808508 -0.056760291 -0.121713152 -8.974318041 2.607419130 1.628872078
1430533007.240270853 -5.368417606 -0.055173315 -0.122948970 -8.978670966 2.505049050 1.758793007
1430533007.250270844 -5.372547356 -0.055564604 -0.122670282 -8.936940268 2.387547741 1.888980459
1430533007.260270834 -5.372858428 -0.055949689 -0.123005339 -8.994552354 2.288911647 2.002718511
1430533007.270270824 -5.370798763 -0.054850941 -0.124022447 -9.003924159 2.149203538 2.136312387
1430533007.280270815 -5.371268410 -0.056807365 -0.121507580 -8.981551606 2.029573596 2.212733279
1430533007.290270805 -5.371919046 -0.057198649 -0.124658863 -8.983977427 1.895341195 2.341501850
1430533007.300270796 -5.371376843 -0.055089126 -0.123402960 -8.992289534 1.753582582 2.418131491
1430533007.310270786 -5.218353650 0.001644438 -0.073711737 -8.915164149 0.922881579 1.705072843
1430533007.320270777 -5.216911459 -0.001724577 -0.073593368 -8.916078970 0.838369190 1.733734213
1430533007.330270767 -5.215864782 -0.003027638 -0.072016778 -8.932011023 0.708730001 1.808040686
1430533007.340270758 -5.217606714 -0.001877307 -0.075768300 -8.963708133 0.655520028 1.792482786
1430533007.350270748 -5.219485984 -0.001762384 -0.073234902 -8.944482014 0.528398046 1.838079947
1430533007.360270739 -5.218583533 -0.001006420 -0.075096174 -8.963859934 0.440310164 1.886050042
1430533007.370270729 -5.214985171 -0.001360356 -0.071619042 -8.968763189 0.325917733 1.898693636
1430533007.380270720 -5.215612478 0.000138543 -0.073361880 -8.909754335 0.216506677 1.866644298
1430533007.390270710 -5.213427327 -0.002553086 -0.072536445 -8.937590199 0.098209155 1.902325766
1430533007.400270700 -5.217862376 -0.003366691 -0.069571851 -8.933434324 -0.022946461 1.868479186
1430533007.410270691 -5.094133099 0.086409603 -0.036378982 -9.447597209 -1.149041039 2.259162469
1430533007.420270681 -5.093670382 0.090341016 -0.038213253 -9.460006416 -1.291913072 2.192552892
1430533007.430270672 -5.092413345 0.086834944 -0.036725788 -9.503673284 -1.384063154 2.112472887
1430533007.440270662 -5.091339907 0.088381810 -0.040436538 -9.485591269 -1.463005467 2.039697137
1430533007.450270653 -5.090959088 0.087698225 -0.037548346 -9.501464006 -1.590123154 1.932448100
1430533007.460270643 -5.094762223 0.089019032 -0.039332309 -9.480399275 -1.718706517 1.812733977
1430533007.470270634 -5.093563125 0.087363372 -0.039207906 -9.501938582 -1.831516788 1.718100772
1430533007.480270624 -5.094850141 0.089672408 -0.040930173 -9.493219789 -1.896946477 1.600870812
1430533007.490270615 -5.334538778 -0.043003200 -0.089227551 -9.323282928 -1.670598864 1.429395728
1430533007.500270605 -5.336433631 -0.042944630 -0.088885089 -9.346134241 -1.707107799 1.331196647
1430533007.510270596 -5.335288680 -0.044206641 -0.086791463 -9.366234896 -1.806343338 1.237054146
1430533007.520270586 -5.335636455 -0.044805577 -0.084855630 -9.390674784 -1.907988264 1.109572584
1430533007.530270576 -5.336716739 -0.042404942 -0.084528872 -9.362545471 -1.964825425 0.989793109
1430533007.540270567 -5.333939562 -0.045109427 -0.083852777 -9.346284007 -2.034492941 0.911974181
1430533007.550270557 -5.336551820 -0.045663499 -0.086214439 -9.344551373 -2.070659402 0.805842996
1430533007.560270548 -5.337047008 -0.046244014 -0.085883392 -9.360330191 -2.139241834 0.681003876
1430533007.570270538 -5.336677799 -0.045799036 -0.087185513 -9.311633342 -2.202956481 0.572436395
1430533007.580270529 -5.332965522 -0.044342695 -0.090296951 -9.344153935 -2.264240809 0.449526824
1430533007.590270519 -5.338313984 -0.047721866 -0.088990665 -9.355471070 -2.256293366 0.357269081
1430533007.600270510 -5.337482344 -0.043006066 -0.089710434 -9.371657533 -2.289847713 0.207384066
1430533007.610270500 -5.334624517 -0.042634013 -0.085882227 -9.336488207 -2.288897861 0.077829708
1430533007.620270491 -5.338946897 -0.042480487 -0.090977451 -9.325177662 -2.338237960 -0.023038935
1430533007.630270481 -5.334378551 -0.044993697 -0.087108763 -9.321261139 -2.353370746 -0.182694980
1430533007.640270472 -5.332051143 -0.045962038 -0.084180175 -9.351901405 -2.339609516 -0.297697358
1430533007.650270462 -5.337762011 -0.045491396 -0.092457303 -9.302688479 -2.307704277 -0.421951199
1430533007.660270452 -5.334044612 -0.046650937 -0.089021421 -9.302103291 -2.349507334 -0.519399443
1430533007.670270443 -5.336889475 -0.043790793 -0.089406793 -9.332025367 -2.286158960 -0.646716413
1430533007.680270433 -5.333594173 -0.050164787 -0.087622174 -9.314665659 -2.320305227 -0.781647879
1430533007.690270424 -5.306799995 0.006986136 -0.098981986 -9.000062706 -3.854093653 0.451685368
1430533007.700270414 -5.309558086 0.006908533 -0.103228889 -8.981141471 -3.901617511 0.214925625
1430533007.710270405 -5.306328244 0.008196813 -0.105129758 -8.981156175 -3.910919535 0.007493127
1430533007.720270395 -5.307934601 0.003157530 -0.104600520 -8.967413965 -3.933539596 -0.194176426
1430533007.730270386 -5.306750332 0.010273534 -0.105185580 -8.959395105 -3.929168358 -0.397031327
1430533007.740270376 -5.307852357 0.005445943 -0.103732254 -8.986301887 -3.942136344 -0.620628067
1430533007.750270367 -5.305788773 0.004760509 -0.102076637 -8.957388073 -3.877839172 -0.837748296
1430533007.760270357 -5.307360007 0.008081811 -0.105363002 -8.956189252 -3.820788235 -1.085657853
1430533007.770270348 -5.307009195 0.005388700 -0.102367065 -8.977876982 -3.832611597 -1.272092916
1430533007.780270338 -5.306856803 0.008381361 -0.101874350 -8.945722874 -3.727850361 -1.499206537
1430533007.790270329 -5.307225901 0.007326279 -0.104125685 -8.927067301 -3.702997136 -1.704038008
1430533007.800270319 -5.249077124 0.083944998 -0.047708241 -9.050038168 -3.593367086 -3.081035270
1430533007.810270309 -5.250067142 0.082761811 -0.050422622 -9.047899707 -3.408115035 -3.306320210
1430533007.820270300 -5.253408514 0.085730957 -0.054428370 -9.053436843 -3.245276516 -3.386219387
1430533007.830270290 -5.247776559 0.081406496 -0.049190938 -8.997482480 -3.076741181 -3.629706973
1430533007.840270281 -5.249651084 0.077894882 -0.050389791 -9.014375262 -2.878582799 -3.794225427
1430533007.850270271 -5.250204243 0.082513626 -0.049416076 -9.045567404 -2.677071895 -3.931331304
1430533007.860270262 -5.246228412 0.082559629 -0.052663960 -9.021766828 -2.452914950 -4.092613667
1430533007.870270252 -5.249686095 0.084688981 -0.054005564 -9.025760774 -2.280015449 -4.248761847
1430533007.880270243 -5.249530546 0.084523956 -0.053244674 -9.024850901 -2.068688222 -4.359981888
1430533007.890270233 -5.252905413 0.085890550 -0.048681647 -9.021584625 -1.853863846 -4.504827902
1430533007.900270224 -5.282797887 -0.020804859 -0.096280067 -8.974533956 -2.009341066 -4.054975634
1430533007.910270214 -5.284367985 -0.020990076 -0.096360741 -8.948765078 -1.782963373 -4.145170382
1430533007.920270205 -5.285702093 -0.019104945 -0.093330659 -8.949326340 -1.550058209 -4.256977137
1430533007.930270195 -5.282554484 -0.019425301 -0.097981901 -8.954587450 -1.347425618 -4.364757898
1430533007.940270185 -5.286750194 -0.023015527 -0.096833991 -8.963390185 -1.136728272 -4.377527075
1430533007.950270176 -5.283070474 -0.021130009 -0.093211651 -8.997682109 -0.919876057 -4.452600990
1430533007.960270166 -5.282652177 -0.022688271 -0.096925311 -8.943534490 -0.700798622 -4.530581170
1430533007.970270157 -5.285105314 -0.024109225 -0.098705808 -8.987739666 -0.477461835 -4.524189237
1430533007.980270147 -5.283267730 -0.020807731 -0.096038965 -8.949861744 -0.222647198 -4.557592576
1430533007.990270138 -5.282210846 -0.021439422 -0.094761799 -8.947468316 -0.044563391 -4.600231703
1430533008.000270128 -5.285218653 -0.021679546 -0.099488830 -8.973611483 0.244718945 -4.581352895
1430533008.010270119 -5.260897859 -0.038534557 -0.115574877 -9.547883967 0.911699122 -3.334047419
1430533008.020270109 -5.261815972 -0.040313819 -0.117956146 -9.561477176 1.087979783 -3.295452960
1430533008.030270100 -5.261118254 -0.041748712 -0.114956170 -9.503380262 1.272914916 -3.230253355
1430533008.040270090 -5.260891807 -0.038858681 -0.113547455 -9.530760136 1.413732448 -3.181561517
1430533008.050270081 -5.262579019 -0.038999148 -0.113597946 -9.547499905 1.544401024 -3.115839892
1430533008.060270071 -5.262793189 -0.037997813 -0.116176891 -9.561394322 1.692151652 -3.004203749
1430533008.070270061 -5.263705002 -0.042118432 -0.116588119 -9.568661582 1.870225139 -2.890473419
1430533008.080270052 -5.263170364 -0.037182387 -0.112627098 -9.572677520 1.978730408 -2.805514062
1430533008.090270042 -5.263318853 -0.040141183 -0.113411406 -9.584286447 2.099932318 -2.740842715
1430533008.100270033 -5.261919499 -0.042016418 -0.115324029 -9.542103064 2.203538281 -2.617928063
1430533008.110270023 -5.400523588 0.064965546 -0.107388421 -9.084080214 1.934332680 -4.221679403
1430533008.120270014 -5.398251222 0.062143026 -0.106688211 -9.081167243 2.192913376 -4.137284673
1430533008.130270004 -5.399905193 0.062040717 -0.105512041 -9.071651920 2.392432875 -4.003967117
1430533008.140269995 -5.398413235 0.063895895 -0.106618834 -9.105913908 2.584932569 -3.884210741
1430533008.150269985 -5.398787507 0.063631097 -0.104600646 -9.062131570 2.792116545 -3.760652905
1430533008.160269976 -5.398206972 0.062985310 -0.107453475 -9.082630553 2.972654203 -3.606223832
1430533008.170269966 -5.396652153 0.059785699 -0.104562729 -9.086761568 3.131198255 -3.448521344
1430533008.180269957 -5.397048293 0.064886586 -0.105937166 -9.069384151 3.303186199 -3.307323133
1430533008.190269947 -5.397173223 0.062680451 -0.107003318 -9.112391789 3.483370744 -3.114761529
1430533008.200269938 -5.400245897 0.061739068 -0.107712142 -9.131418583 3.656803195 -2.934150185
1430533008.210269928 -5.373233546 0.025677278 -0.054187433 -9.079186740 2.235004831 -2.405681634
1430533008.220269918 -5.370724632 0.023768196 -0.052460536 -9.059274272 2.371760091 -2.265050306
1430533008.230269909 -5.370892284 0.019669152 -0.054748683 -9.072636062 2.436469788 -2.164460208
1430533008.240269899 -5.371564351 0.021501098 -0.055368732 -9.041178183 2.573077368 -2.028696158
1430533008.250269890 -5.373735247 0.022491412 -0.052892158 -9.092903880 2.627542808 -1.906981083
1430533008.260269880 -5.370549387 0.020297285 -0.056973369 -9.101609456 2.741118633 -1.792474062
1430533008.270269871 -5.370062965 0.024831479 -0.051701853 -9.077759611 2.821084045 -1.602463259
1430533008.280269861 -5.371569159 0.021516615 -0.051925862 -9.090430406 2.925849113 -1.444968189
1430533008.290269852 -5.371332417 0.024819873 -0.051520615 -9.106112129 2.984545611 -1.340342186
1430533008.300269842 -5.370827740 0.023628272 -0.052613340 -9.047071921 3.018665936 -1.156532279
1430533008.310269833 -5.206170698 -0.063353256 -0.099715871 -8.953911250 3.655982120 -1.833484165
1430533008.320269823 -5.207050016 -0.059221928 -0.102901232 -9.025804959 3.753947992 -1.613967375
1430533008.330269814 -5.208693413 -0.061268578 -0.104555878 -9.023345879 3.833354297 -1.420093285
1430533008.340269804 -5.205715383 -0.061458087 -0.099736926 -8.964120217 3.870644844 -1.221062478
1430533008.350269794 -5.203781123 -0.056981393 -0.099467212 -8.961598953 3.909350268 -1.046240332
1430533008.360269785 -5.207227207 -0.060739925 -0.099398914 -8.982987664 3.947780145 -0.841492561
1430533008.370269775 -5.206980639 -0.061066049 -0.102078566 -9.025772047 4.000418357 -0.628187954
1430533008.380269766 -5.205824872 -0.061279515 -0.101723437 -9.052884956 3.989045117 -0.378251662
1430533008.390269756 -5.207876037 -0.062655938 -0.098568614 -9.045998995 4.021297242 -0.178333535
1430533008.400269747 -5.205092773 -0.059164712 -0.102514245 -9.004689728 3.982079123 0.049612143
1430533008.410269737 -5.385106161 -0.055130756 -0.120582111 -8.902558665 2.825258452 1.189523406
1430533008.420269728 -5.378315189 -0.052994006 -0.125558548 -8.883251141 2.722397887 1.388306856
1430533008.430269718 -5.383650093 -0.049597120 -0.124632558 -8.892563678 2.631440857 1.509662477
1430533008.440269709 -5.383208056 -0.052276066 -0.122318435 -8.906623916 2.569462009 1.658880048
1430533008.450269699 -5.382618355 -0.055114837 -0.124136327 -8.896791340 2.449186805 1.741740438
1430533008.460269690 -5.384074420 -0.051569344 -0.124016354 -8.917396540 2.328996418 1.899889006
1430533008.470269680 -5.384435449 -0.051407923 -0.124279201 -8.880630372 2.169635978 1.973825499
1430533008.480269670 -5.384770580 -0.051137311 -0.125085456 -8.875043071 2.113685897 2.172477667
1430533008.490269661 -5.382262922 -0.054097876 -0.122469276 -8.912444906 1.970572916 2.268044808
1430533008.500269651 -5.381769407 -0.053084136 -0.122630601 -8.907729561 1.789105817 2.310011142
1430533008.510269642 -5.191037205 0.031330613 -0.057454897 -9.189359652 1.915370276 1.187923406
1430533008.520269632 -5.192742282 0.030450660 -0.056877623 -9.159735258 1.853146447 1.327489391
1430533008.530269623 -5.191228602 0.031111154 -0.056500719 -9.178077332 1.738185716 1.422764806
1430533008.540269613 -5.192954566 0.031932470 -0.057840956 -9.215002092 1.696837497 1.460341425
1430533008.550269604 -5.192532416 0.033112930 -0.056253149 -9.160067817 1.603933225 1.550580190
1430533008.560269594 -5.196218028 0.034314041 -0.058461207 -9.209506885 1.503607590 1.596824726
1430533008.570269585 -5.192868974 0.030636800 -0.058936584 -9.170793919 1.395102707 1.670296491
1430533008.580269575 -5.193984837 0.032045532 -0.052073316 -9.172187521 1.283995606 1.766698370
1430533008.590269566 -5.191918632 0.030492824 -0.056395043 -9.208626511 1.218462966 1.820415343
1430533008.600269556 -5.189820048 0.028871965 -0.057482329 -9.161463229 1.083412240 1.848539873
1430533008.610269547 -5.094267313 0.056971501 -0.042752032 -9.476676719 -1.639690103 2.080986856
1430533008.620269537 -5.092073503 0.059143071 -0.042183720 -9.463724404 -1.774719757 2.001681737
1430533008.630269527 -5.091989476 0.057261304 -0.041299366 -9.449283853 -1.856347365 1.858271017
1430533008.640269518 -5.093271624 0.053885975 -0.041617056 -9.500418742 -1.949656469 1.795820786
1430533008.650269508 -5.091466098 0.056480803 -0.044092608 -9.479866594 -2.136063745 1.668946063
1430533008.660269499 -5.093797547 0.061213851 -0.040291066 -9.484739582 -2.157652244 1.565167130
1430533008.670269489 -5.090308463 0.056838862 -0.043259874 -9.497352996 -2.245268534 1.414639072
1430533008.680269480 -5.094539032 0.058072753 -0.041108100 -9.466870196 -2.319110746 1.277982519
1430533008.690269470 -5.092187488 0.055836833 -0.042496325 -9.479308829 -2.394229787 1.171617867
1430533008.700269461 -5.271746539 -0.063485812 -0.031726488 -9.374330109 -1.679515790 1.243552631
1430533008.710269451 -5.272005552 -0.064030034 -0.031859809 -9.369261146 -1.748092532 1.138101729
1430533008.720269442 -5.274098444 -0.062610748 -0.033007861 -9.346597056 -1.826772532 1.028209236
1430533008.730269432 -5.274726939 -0.062304726 -0.035844925 -9.354634848 -1.870939611 0.976916968
1430533008.740269423 -5.276447879 -0.063902649 -0.032609702 -9.406565255 -1.923967933 0.839696629
1430533008.750269413 -5.274925566 -0.064839388 -0.034622620 -9.365854200 -2.003439451 0.730486913
1430533008.760269403 -5.274237029 -0.065332966 -0.032017818 -9.371536829 -2.034887167 0.677439380
1430533008.770269394 -5.272141489 -0.063938915 -0.032338843 -9.379218511 -2.090862521 0.517228731
1430533008.780269384 -5.273522831 -0.060875813 -0.034897181 -9.380578809 -2.105217523 0.460492291
1430533008.790269375 -5.364775121 -0.008817603 -0.107811659 -9.294647909 -2.384745249 0.298294207
1430533008.800269365 -5.366584660 -0.005807992 -0.106220192 -9.339035817 -2.419794073 0.159705719
1430533008.810269356 -5.366582889 -0.008310770 -0.107453125 -9.294048665 -2.357981660 0.048355903
1430533008.820269346 -5.362929101 -0.007101170 -0.104440035 -9.280347223 -2.433053762 -0.079536403
1430533008.830269337 -5.366649457 -0.007860985 -0.105026115 -9.270139486 -2.457853259 -0.244093673
1430533008.840269327 -5.363681205 -0.008125834 -0.106819048 -9.227315189 -2.431901160 -0.351515288
1430533008.850269318 -5.364003318 -0.011064685 -0.105786717 -9.288669147 -2.397627220 -0.488834936
1430533008.860269308 -5.363102327 -0.007383673 -0.105716886 -9.299277586 -2.438861200 -0.654754312
1430533008.870269299 -5.360167003 -0.008676607 -0.106686132 -9.268313632 -2.383004061 -0.750873178
1430533008.880269289 -5.364352167 -0.009785941 -0.108326065 -9.243327538 -2.371029883 -0.927828823
1430533008.890269279 -5.313936251 0.039441290 -0.117794517 -8.926946645 -4.348030206 -0.486181430
1430533008.900269270 -5.314635858 0.039983835 -0.112648648 -8.946032362 -4.335027323 -0.709357279
1430533008.910269260 -5.312053480 0.043744327 -0.119834713 -8.978987620 -4.334679328 -0.911259105
1430533008.920269251 -5.314348055 0.040351728 -0.117585180 -8.962155994 -4.266933092 -1.160352990
1430533008.930269241 -5.314029786 0.035733695 -0.115531918 -8.947138691 -4.231979024 -1.414883313
1430533008.940269232 -5.310303366 0.040023934 -0.117687506 -8.926529833 -4.091257869 -1.638682681
1430533008.950269222 -5.313226295 0.040038484 -0.116064599 -8.918091320 -4.058485542 -1.844685061
1430533008.960269213 -5.314032509 0.039323490 -0.115538218 -8.930982257 -3.954648100 -2.066844501
1430533008.970269203 -5.314776431 0.037557663 -0.117433389 -8.931180574 -3.905003523 -2.333102768
1430533008.980269194 -5.312250883 0.039164947 -0.115036290 -8.905154193 -3.744677326 -2.513561901
1430533008.990269184 -5.312480897 0.040592527 -0.116223296 -8.921675626 -3.646545805 -2.720908275
1430533009.000269175 -5.284215192 0.029703351 -0.049623831 -8.379507674 -3.262184529 -0.516615740
1430533009.010269165 -5.283252822 0.030691535 -0.051471546 -8.340756348 -3.246503081 -0.694157727
1430533009.020269156 -5.278702789 0.028504165 -0.054357900 -8.387603608 -3.209355035 -0.887420910
1430533009.030269146 -5.280786716 0.031582057 -0.048086754 -8.365766018 -3.185815175 -1.049844577
1430533009.040269136 -5.279603353 0.033933166 -0.052006592 -8.368341106 -3.110755992 -1.220929714
1430533009.050269127 -5.281864696 0.030145874 -0.050428282 -8.352453125 -3.065669839 -1.409783652
1430533009.060269117 -5.282374878 0.032972777 -0.050636130 -8.348352438 -3.004019905 -1.529108053
1430533009.070269108 -5.281296124 0.031741825 -0.051260781 -8.339039938 -2.903127455 -1.704432500
1430533009.080269098 -5.281172718 0.032364928 -0.051530098 -8.359050090 -2.817949450 -1.852057852
1430533009.090269089 -5.279929377 0.033164685 -0.048559456 -8.354306960 -2.685555266 -1.987144952
1430533009.100269079 -5.278458216 0.030458043 -0.050304712 -8.315529586 -2.617242404 -2.178414540
1430533009.110269070 -5.277026242 0.031750879 -0.049551124 -8.354895354 -2.484698616 -2.326976186
1430533009.120269060 -5.281544030 0.030798156 -0.049904616 -8.303529106 -2.363733242 -2.480065693
1430533009.130269051 -5.280407635 0.031218398 -0.050891058 -8.351683679 -2.276666995 -2.610301499
1430533009.140269041 -5.280774972 0.027860509 -0.053138688 -8.336573683 -2.136522003 -2.724491455
1430533009.150269032 -5.280234444 0.031216495 -0.049453800 -8.373585997 -1.975578350 -2.846709933
1430533009.160269022 -5.280043122 0.030753506 -0.048803212 -8.318544293 -1.841653432 -2.965953200
1430533009.170269012 -5.282155630 0.033021127 -0.053796632 -8.293219294 -1.706278900 -3.041382752
1430533009.180269003 -5.132718240 -0.299767457 -0.472684811 -10.448890085 2.794496914 -6.971673567
1430533009.190268993 -5.136408933 -0.301560032 -0.471314737 -10.487422516 3.055625524 -6.837540920
1430533009.200268984 -5.135221392 -0.297717287 -0.472595824 -10.545363554 3.367177249 -6.619638598
1430533009.210268974 -5.307020473 -0.017568263 -0.017787487 -9.448961735 0.810219934 -3.429052140
1430533009.220268965 -5.307917312 -0.019490609 -0.021156102 -9.470243658 1.013766524 -3.362645548
1430533009.230268955 -5.306148198 -0.020693004 -0.022345689 -9.446261034 1.203960967 -3.321629022
1430533009.240268946 -5.306805021 -0.018585661 -0.019220641 -9.420106786 1.387240636 -3.304857889
1430533009.250268936 -5.306022854 -0.020492501 -0.019468899 -9.464122011 1.492344442 -3.187211708
1430533009.260268927 -5.305306660 -0.018401446 -0.019563657 -9.445147140 1.670476153 -3.126026248
1430533009.270268917 -5.310544095 -0.014193382 -0.017410616 -9.458713840 1.833391135 -3.010704725
1430533009.280268908 -5.307785871 -0.016569365 -0.020167935 -9.453453826 1.983364079 -2.940081488
1430533009.290268898 -5.305671013 -0.019239396 -0.019759908 -9.455620299 2.141542687 -2.838850285
1430533009.300268888 -5.308001573 -0.017859590 -0.018419937 -9.430241217 2.296128006 -2.690500736
1430533009.310268879 -5.418501049 0.028207037 -0.069966272 -9.065439158 1.984182161 -3.888707708
1430533009.320268869 -5.419213501 0.029123952 -0.069632069 -9.127998367 2.224781422 -3.800486214
1430533009.330268860 -5.416693600 0.028176311 -0.062032730 -9.084696522 2.378210092 -3.633303151
1430533009.340268850 -5.418267368 0.028971548 -0.067657412 -9.089060004 2.552782553 -3.511230811
1430533009.350268841 -5.417948429 0.028808307 -0.064099555 -9.095249715 2.719288307 -3.421369501
1430533009.360268831 -5.414213304 0.028720017 -0.066242454 -9.103318247 2.936240835 -3.204316341
1430533009.370268822 -5.418654144 0.027559536 -0.067071171 -9.117345329 3.076573110 -3.090131839
1430533009.380268812 -5.416007500 0.027679790 -0.065070895 -9.131567584 3.259515427 -2.895641049
1430533009.390268803 -5.418873636 0.029596567 -0.066705038 -9.099982583 3.410198692 -2.729593504
1430533009.400268793 -5.422735492 0.026206381 -0.066002750 -9.110567397 3.486487955 -2.580319154
1430533009.410268784 -5.302458475 0.014001241 -0.056484384 -9.083997849 2.627994556 -2.837086707
1430533009.420268774 -5.301375678 0.013255591 -0.059955569 -9.069599141 2.778779628 -2.695505089
1430533009.430268764 -5.304608871 0.012494433 -0.061535530 -9.079193583 2.866669903 -2.537998608
1430533009.440268755 -5.303098610 0.011007303 -0.059190862 -9.048898484 2.958842765 -2.398446944
1430533009.450268745 -5.302185476 0.011664905 -0.057538956 -9.042724164 3.150343744 -2.237757332
1430533009.460268736 -5.304881501 0.010625523 -0.060303868 -9.068760639 3.222412555 -2.081542411
1430533009.470268726 -5.305955425 0.010331673 -0.058609021 -9.055744059 3.327815604 -1.940720565
1430533009.480268717 -5.306645792 0.010701189 -0.062355203 -9.085364728 3.415495199 -1.737764718
1430533009.490268707 -5.301936952 0.008486021 -0.063833960 -9.057303813 3.502840617 -1.544247486
1430533009.500268698 -5.304094013 0.007548533 -0.062801662 -9.104664667 3.582765095 -1.386569169
1430533009.510268688 -5.230248109 -0.104074965 -0.098738985 -9.147479258 3.394617962 -2.094018332
1430533009.520268679 -5.226687372 -0.103219873 -0.096224575 -9.150939953 3.515048872 -1.901471054
1430533009.530268669 -5.232409436 -0.101940823 -0.101315346 -9.208938599 3.648935808 -1.693835828
1430533009.540268660 -5.230452010 -0.101238977 -0.097075755 -9.159537342 3.686551634 -1.499581294
1430533009.550268650 -5.232306193 -0.103739719 -0.098119096 -9.164689591 3.735526640 -1.300547367
1430533009.560268641 -5.230597138 -0.103251488 -0.094789012 -9.150586912 3.784012672 -1.121310441
1430533009.570268631 -5.229146936 -0.102661765 -0.099473045 -9.182558180 3.830656316 -0.897836451
1430533009.580268621 -5.229901514 -0.103929440 -0.097749262 -9.149445644 3.836981820 -0.695367379
1430533009.590268612 -5.231721461 -0.103752766 -0.097704155 -9.174985265 3.893145579 -0.495461941
1430533009.600268602 -5.228887483 -0.102612260 -0.098640867 -9.166380945 3.879353059 -0.269980514
1430533009.610268593 -5.341531352 -0.033644566 -0.095954830 -8.697575696 2.878982105 1.311646412
1430533009.620268583 -5.341508751 -0.033406443 -0.094747422 -8.711260092 2.770112306 1.521838521
1430533009.630268574 -5.339746565 -0.031778455 -0.094667416 -8.663649458 2.694649305 1.643988466
1430533009.640268564 -5.341902148 -0.032923472 -0.093492467 -8.735914829 2.584641764 1.796553503
1430533009.650268555 -5.340118016 -0.032943733 -0.095623286 -8.748474674 2.485394247 1.950833387
1430533009.660268545 -5.339922329 -0.036079544 -0.097361345 -8.728350511 2.345030902 2.046230488
1430533009.670268536 -5.340459886 -0.035457866 -0.095873008 -8.752139850 2.211350473 2.179619386
1430533009.680268526 -5.341306830 -0.035783854 -0.095221253 -8.681482813 2.139328213 2.262635677
1430533009.690268517 -5.342047589 -0.031307538 -0.096605267 -8.723687655 1.961218731 2.380621710
1430533009.700268507 -5.341298432 -0.035420784 -0.098836908 -8.771765170 1.813023915 2.470735769
1430533009.710268497 -5.203414294 0.045422613 -0.022821804 -9.315700754 0.750306022 1.804487895
1430533009.720268488 -5.205434464 0.046188788 -0.020124940 -9.276442790 0.699135390 1.806726199
1430533009.730268478 -5.205858084 0.044176156 -0.022134565 -9.265474892 0.608202553 1.846923210
1430533009.740268469 -5.200865090 0.046626751 -0.023561930 -9.312599505 0.486052878 1.875262947
1430533009.750268459 -5.203754315 0.048345700 -0.021985654 -9.291248493 0.362003318 1.882745612
1430533009.760268450 -5.203165637 0.048014677 -0.020181268 -9.294497190 0.272016970 1.882811571
1430533009.770268440 -5.206527016 0.048783803 -0.018766741 -9.261807072 0.184078467 1.904842305
1430533009.780268431 -5.205218963 0.048663028 -0.023409312 -9.339822878 0.071690291 1.830814643
1430533009.790268421 -5.166993660 0.059324294 -0.038543484 -9.198731084 -1.129954097 2.103530840
1430533009.800268412 -5.170065920 0.058766305 -0.038928960 -9.178569146 -1.283953820 1.988445940
1430533009.810268402 -5.165117245 0.057714997 -0.040286566 -9.134150297 -1.360179382 1.928729028
1430533009.820268393 -5.165090163 0.059387906 -0.040023519 -9.151807517 -1.469355824 1.830256121
1430533009.830268383 -5.167825194 0.052325837 -0.040346972 -9.169250267 -1.590137782 1.724685785
1430533009.840268373 -5.167645712 0.058243325 -0.038434269 -9.225970481 -1.638758728 1.672483409
1430533009.850268364 -5.168136526 0.054211886 -0.040906059 -9.176646100 -1.788780580 1.553262716
1430533009.860268354 -5.168030513 0.056195687 -0.039726095 -9.166878942 -1.839633445 1.503348514
1430533009.870268345 -5.168245983 0.060194694 -0.040999219 -9.164570587 -1.944986045 1.399082353
1430533009.880268335 -5.165516533 0.060096774 -0.041948404 -9.200048340 -2.008292747 1.287525575
1430533009.890268326 -5.168034776 0.062503815 -0.039134685 -9.170301351 -2.086358891 1.121767205
1430533009.900268316 -5.306689781 -0.038022107 -0.059637691 -9.495416192 -1.971190746 1.041461659
1430533009.910268307 -5.302571816 -0.035300268 -0.059384953 -9.520854541 -2.040170020 1.004847268
1430533009.920268297 -5.304131375 -0.033194429 -0.061173636 -9.491864960 -2.118134551 0.880901617
1430533009.930268288 -5.305771368 -0.034405480 -0.059010878 -9.463023298 -2.169779597 0.785566380
1430533009.940268278 -5.304535747 -0.036035209 -0.057309581 -9.506358050 -2.211278766 0.628591326
1430533009.950268269 -5.308037123 -0.035709605 -0.058678536 -9.481275405 -2.260311242 0.519286245
1430533009.960268259 -5.306882199 -0.038535370 -0.056419741 -9.485538387 -2.267304325 0.404793916
1430533009.970268250 -5.305290500 -0.034397732 -0.059264073 -9.465589686 -2.296695162 0.286103370
1430533009.980268240 -5.307079487 -0.033925298 -0.057688363 -9.484906070 -2.325793448 0.165847363
1430533009.990268230 -5.332256215 -0.009365430 -0.119165409 -9.272274818 -2.562866864 0.112605750
1430533010.000268221 -5.332580955 -0.009450388 -0.117990790 -9.265826292 -2.603482668 -0.027227291
1430533010.010268211 -5.331791678 -0.011126102 -0.118319978 -9.258451651 -2.648436861 -0.139469058
1430533010.020268202 -5.331272241 -0.008695963 -0.116119926 -9.228876023 -2.662622770 -0.274070143
1430533010.030268192 -5.334305972 -0.010762243 -0.120721101 -9.241872045 -2.621342272 -0.405026479
1430533010.040268183 -5.333496431 -0.012907488 -0.119277781 -9.254119630 -2.550848604 -0.570435927
1430533010.050268173 -5.333518879 -0.010310244 -0.120785414 -9.238085838 -2.583930576 -0.718694199
1430533010.060268164 -5.331583179 -0.010222976 -0.119126751 -9.259845461 -2.577625159 -0.851702547
1430533010.070268154 -5.327082871 -0.010111959 -0.121561100 -9.223147266 -2.503692045 -1.007064106
1430533010.080268145 -5.330605816 -0.011437881 -0.116459422 -9.242332800 -2.512239539 -1.137498847
1430533010.090268135 -5.333421863 -0.010004406 -0.121438160 -9.255203599 -2.444823010 -1.254488780
1430533010.100268126 -5.294709345 0.016448064 -0.100927579 -8.997904842 -4.585039276 -0.604624998
1430533010.110268116 -5.295293220 0.016146421 -0.101928699 -9.002820111 -4.538517752 -0.814244290
1430533010.120268106 -5.295877479 0.018675053 -0.102838482 -8.953032264 -4.514550056 -1.128052021
1430533010.130268097 -5.292572431 0.018983395 -0.102030118 -8.997958541 -4.444720536 -1.354138102
1430533010.140268087 -5.296186319 0.019733062 -0.100702838 -8.989630450 -4.387303426 -1.647633080
1430533010.150268078 -5.293801593 0.022330998 -0.104470065 -9.013851247 -4.313605928 -1.792668642
1430533010.160268068 -5.291337206 0.021217654 -0.100819547 -8.996066905 -4.246266037 -2.040337455
1430533010.170268059 -5.294795072 0.019547579 -0.103767529 -8.971356376 -4.128953528 -2.320548158
1430533010.180268049 -5.295630053 0.022082345 -0.103322561 -8.980390286 -4.018857704 -2.517208380
1430533010.190268040 -5.295323900 0.018240527 -0.104598169 -8.950816721 -3.924655963 -2.755955009
1430533010.200268030 -5.299840886 0.002734015 -0.061716291 -9.130025218 -2.702722356 -2.825122457
1430533010.210268021 -5.299792200 0.005866662 -0.060518796 -9.133240987 -2.546359934 -2.975699032
1430533010.220268011 -5.300850691 0.006779150 -0.062392847 -9.128681633 -2.452064965 -3.093552424
1430533010.230268002 -5.301363366 0.003596620 -0.062817443 -9.123538243 -2.239405840 -3.238811779
1430533010.240267992 -5.299364036 0.003459473 -0.067327626 -9.130080797 -2.113374539 -3.346484746
1430533010.250267982 -5.300217974 0.005064610 -0.059370207 -9.100333800 -1.946295012 -3.440119056
1430533010.260267973 -5.299149356 0.005017789 -0.065096703 -9.132628233 -1.725078107 -3.544998126
1430533010.270267963 -5.300265049 0.003339297 -0.063215966 -9.090040623 -1.566035481 -3.659198846
1430533010.280267954 -5.301580121 0.002551133 -0.063824741 -9.124081239 -1.398327871 -3.743224432
1430533010.290267944 -5.299980586 0.004893683 -0.063771308 -9.089835386 -1.170882793 -3.788946385
1430533010.300267935 -5.299546073 0.005942744 -0.060841420 -9.135418410 -0.991118810 -3.861742193
1430533010.310267925 -5.303004347 0.002524233 -0.062462805 -9.106072543 -0.763854997 -3.932936114
1430533010.320267916 -5.299908676 0.003232125 -0.063161410 -9.107229549 -0.595901176 -3.978205107
1430533010.330267906 -5.299981764 0.004867880 -0.064512104 -9.125600545 -0.365595986 -3.987893091
1430533010.340267897 -5.303864954 0.008718770 -0.062147202 -9.113168052 -0.167237678 -4.018769799
1430533010.350267887 -5.303038622 0.004571667 -0.064915410 -9.079444694 -0.014771023 -4.015306419
1430533010.360267878 -5.300744709 0.004596661 -0.063469667 -9.090703463 0.214248998 -4.056837924
1430533010.370267868 -5.298194489 0.007851259 -0.062990728 -9.085032800 0.383768004 -3.996849157
1430533010.380267859 -5.299381279 0.002542288 -0.063727253 -9.103459814 0.635655767 -4.000067271
1430533010.390267849 -5.305598374 0.003419974 -0.063937851 -9.140048301 0.826298476 -3.958968828
1430533010.400267839 -5.299162152 0.003995954 -0.062054681 -9.091857219 1.002481898 -3.934235809
1430533010.410267830 -5.244844619 -0.012036044 -0.112749446 -9.169856922 1.121788047 -3.638535767
1430533010.420267820 -5.244255978 -0.013581888 -0.111521005 -9.227981127 1.287694306 -3.627955328
1430533010.430267811 -5.243064717 -0.011515533 -0.113225979 -9.200792903 1.440282647 -3.616908092
1430533010.440267801 -5.242800898 -0.015069930 -0.112288695 -9.226782067 1.626968276 -3.507209939
1430533010.450267792 -5.246346853 -0.010587092 -0.110664441 -9.227379423 1.760089127 -3.405309109
1430533010.460267782 -5.242581620 -0.012526066 -0.110375006 -9.191443440 1.966733277 -3.289796271
1430533010.470267773 -5.242865117 -0.012406297 -0.109158341 -9.221405993 2.122766583 -3.217391565
1430533010.480267763 -5.242195617 -0.014662275 -0.109774523 -9.199917653 2.261465024 -3.062154437
1430533010.490267754 -5.245607993 -0.010542434 -0.112243962 -9.206702863 2.432161622 -2.949671347
1430533010.500267744 -5.243425585 -0.014440285 -0.106418658 -9.249018479 2.541825087 -2.875711362
1430533010.510267735 -5.389492018 0.056871744 -0.090371628 -9.369609822 2.213119383 -3.697424701
1430533010.520267725 -5.391977977 0.059669019 -0.088359673 -9.361948424 2.320219070 -3.574678645
1430533010.530267715 -5.391472136 0.058111903 -0.092301399 -9.351621352 2.536819857 -3.475582282
1430533010.540267706 -5.389157634 0.055535820 -0.089656663 -9.368512581 2.678592531 -3.325816072
1430533010.550267696 -5.388049480 0.055819124 -0.091634541 -9.407986528 2.863072907 -3.180080255
1430533010.560267687 -5.391113937 0.057354002 -0.090506054 -9.364341195 3.035862988 -3.041926859
1430533010.570267677 -5.389006810 0.053716615 -0.093237671 -9.370770738 3.149480817 -2.892957960
1430533010.580267668 -5.391160148 0.056878670 -0.091247325 -9.374444105 3.273181282 -2.722563074
1430533010.590267658 -5.391196760 0.059406341 -0.091029662 -9.360011010 3.445786749 -2.524307615
1430533010.600267649 -5.390095890 0.057532207 -0.090262621 -9.342495337 3.522136241 -2.355956653
1430533010.610267639 -5.283109223 -0.006854857 -0.063680727 -8.942772624 2.977472118 -2.469395766
1430533010.620267630 -5.283642510 -0.003651792 -0.061713282 -8.930626115 3.092987972 -2.329330366
1430533010.630267620 -5.282971401 -0.002622870 -0.063480588 -8.890172805 3.184537291 -2.136886236
1430533010.640267611 -5.285364106 -0.006334713 -0.060573654 -8.906954070 3.301178897 -1.988799863
1430533010.650267601 -5.284290629 -0.006767514 -0.063421132 -8.942046171 3.357651247 -1.816810389
1430533010.660267591 -5.284283534 -0.006681575 -0.063208233 -8.919589766 3.438686537 -1.625269222
1430533010.670267582 -5.283056879 -0.004248241 -0.063393676 -8.922544581 3.529267820 -1.482252290
1430533010.680267572 -5.281771207 -0.003412956 -0.063529502 -8.945400798 3.574065674 -1.266421559
1430533010.690267563 -5.280440097 -0.003969629 -0.063044540 -8.912780077 3.629441008 -1.096775412
1430533010.700267553 -5.283889342 -0.002494163 -0.062829465 -8.939286767 3.654645253 -0.900054934
1430533010.710267544 -5.269228932 -0.078781244 -0.105088962 -9.103707270 3.728041969 -1.065390379
1430533010.720267534 -5.270500440 -0.078315767 -0.102112214 -9.099576773 3.771319573 -0.852965707
1430533010.730267525 -5.265493562 -0.080609622 -0.101231445 -9.102138853 3.808245967 -0.628085841
1430533010.740267515 -5.267808185 -0.080520019 -0.105514743 -9.136196480 3.816081541 -0.416437570
1430533010.750267506 -5.267489964 -0.081010275 -0.100559978 -9.119769226 3.807833651 -0.223632516
1430533010.760267496 -5.268223493 -0.080101120 -0.102243220 -9.106652003 3.805202621 -0.025082228
1430533010.770267487 -5.268916967 -0.075364011 -0.106430725 -9.142631204 3.788642984 0.162316416
1430533010.780267477 -5.266685312 -0.078481517 -0.101191961 -9.158962313 3.743435813 0.372858632
1430533010.790267467 -5.265946894 -0.081031262 -0.099605326 -9.151665126 3.723129517 0.562803543
1430533010.800267458 -5.267706961 -0.077291307 -0.102375169 -9.153251976 3.669179938 0.795910440
1430533010.810267448 -5.280459821 -0.029297580 -0.124460590 -8.793337379 2.856896734 1.312269638
1430533010.820267439 -5.280429797 -0.023223222 -0.125776574 -8.784788611 2.718157313 1.485992197
1430533010.830267429 -5.282864751 -0.024314621 -0.127593135 -8.768317190 2.668459455 1.593997407
1430533010.840267420 -5.280169250 -0.029562957 -0.124183520 -8.782703221 2.550416967 1.718822534
1430533010.850267410 -5.278418659 -0.026644075 -0.126447713 -8.800421630 2.432044847 1.851903233
1430533010.860267401 -5.280302104 -0.027103328 -0.124259946 -8.806788904 2.304915987 1.957994874
1430533010.870267391 -5.280319117 -0.024768715 -0.123215323 -8.834207542 2.192858571 2.115045433
1430533010.880267382 -5.280927069 -0.027359702 -0.127501747 -8.771003097 2.030893630 2.237783462
1430533010.890267372 -5.282052814 -0.024229617 -0.124951433 -8.777655718 1.927588557 2.319213026
1430533010.900267363 -5.280634707 -0.027992425 -0.124171112 -8.795698727 1.779714992 2.435218267
1430533010.910267353 -5.223706781 0.035484656 -0.031381168 -9.190813500 0.818515821 1.636645068
1430533010.920267344 -5.222416710 0.033795863 -0.030047473 -9.223722468 0.729956192 1.598861726
1430533010.930267334 -5.223045467 0.036875963 -0.029546801 -9.174796035 0.591650581 1.654224802
1430533010.940267324 -5.224311804 0.035703381 -0.033651561 -9.181939019 0.531599008 1.659976256
1430533010.950267315 -5.222753977 0.040049337 -0.030212827 -9.173772804 0.442186538 1.700551754
1430533010.960267305 -5.223146880 0.036586171 -0.033475838 -9.171410014 0.332743427 1.685725802
1430533010.970267296 -5.220598608 0.036817182 -0.031617384 -9.162729608 0.248290109 1.741242721
1430533010.980267286 -5.221073217 0.039002640 -0.031634110 -9.202855137 0.164200237 1.720751556
1430533010.990267277 -5.223732906 0.034593346 -0.033199354 -9.178701678 0.119041545 1.677787392
1430533011.000267267 -5.225983968 0.039310122 -0.031092888 -9.194205966 -0.010834745 1.704354774
1430533011.010267258 -5.094485382 0.028667223 -0.007816998 -9.471660636 -1.549151497 1.721245619
1430533011.020267248 -5.096192616 0.025803135 -0.007364640 -9.473213248 -1.628846863 1.584140944
1430533011.030267239 -5.092669794 0.031930610 -0.007344334 -9.481294370 -1.749791705 1.540970591
1430533011.040267229 -5.092885414 0.030994289 -0.009379595 -9.503336969 -1.818623664 1.410638507
1430533011.050267220 -5.092301653 0.027293109 -0.009820671 -9.466027330 -1.906011064 1.347281274
1430533011.060267210 -5.095135374 0.031617084 -0.007042626 -9.446437527 -1.968605817 1.219513997
1430533011.070267200 -5.094571095 0.030320298 -0.009524714 -9.482676136 -2.027579375 1.103196706
1430533011.080267191 -5.091875006 0.025763822 -0.005013225 -9.451649044 -2.068353830 0.992581813
1430533011.090267181 -5.092558521 0.028809337 -0.005511625 -9.442949916 -2.109534726 0.868834153
1430533011.100267172 -5.286258770 0.030200277 -0.097637204 -9.237143162 -2.595247622 1.011206925
1430533011.110267162 -5.280933794 0.030243373 -0.097710321 -9.233471774 -2.627680304 0.897889773
1430533011.120267153 -5.283200502 0.029712419 -0.095782462 -9.269835603 -2.695880937 0.727211124
1430533011.130267143 -5.284351492 0.031210801 -0.096774168 -9.221155949 -2.715574873 0.573849740
1430533011.140267134 -5.286488057 0.030088379 -0.093903694 -9.216729560 -2.837331959 0.451429973
1430533011.150267124 -5.283513815 0.027051393 -0.099110582 -9.231760590 -2.780849500 0.279307930
1430533011.160267115 -5.285915535 0.033374502 -0.094732313 -9.189061500 -2.848453807 0.109996998
1430533011.170267105 -5.290295142 0.031254609 -0.094845996 -9.250507664 -2.859273652 -0.074600037
1430533011.180267096 -5.284671971 0.029393275 -0.097736491 -9.241716677 -2.871267448 -0.211883417
1430533011.190267086 -4.973877643 0.065115836 -0.102452449 -9.450253429 -3.596470342 0.431304258
1430533011.200267076 -4.974183525 0.069892515 -0.100447472 -9.428266458 -3.579214811 0.213240176
1430533011.210267067 -4.971848936 0.067048393 -0.102323829 -9.407997768 -3.572561038 0.005593221
1430533011.220267057 -4.974251337 0.067358725 -0.102602856 -9.414163854 -3.636430313 -0.124767094
1430533011.230267048 -4.974166721 0.070254435 -0.104713825 -9.431011477 -3.620164965 -0.320657986
1430533011.240267038 -4.972479458 0.069681749 -0.101290446 -9.373103968 -3.588048799 -0.519902478
1430533011.250267029 -4.974076597 0.068278516 -0.103702900 -9.392769638 -3.574223442 -0.731101241
1430533011.260267019 -4.972909336 0.067102298 -0.101520021 -9.398297311 -3.570845261 -0.907774014
1430533011.270267010 -4.971836952 0.066297466 -0.101137920 -9.363133721 -3.546796339 -1.096816712
1430533011.280267000 -4.970185910 0.067901013 -0.101892246 -9.387278304 -3.489384907 -1.278003080
1430533011.290266991 -4.970120363 0.068368002 -0.101547161 -9.366834690 -3.424452213 -1.436384660
1430533011.300266981 -4.898275773 -0.001395678 -0.124720810 -9.887282842 -5.039975481 -0.461591089
1430533011.310266972 -4.899472593 -0.000737117 -0.128236165 -9.827498292 -5.019180715 -0.721221070
1430533011.320266962 -4.899854695 -0.002198468 -0.124771597 -9.851451095 -4.957950981 -0.954511721
1430533011.330266953 -4.899963951 -0.000874839 -0.125309784 -9.871211858 -4.985811606 -1.236990855
1430533011.340266943 -4.900931937 -0.001140286 -0.121506756 -9.836568478 -4.886115016 -1.489516516
1430533011.350266933 -4.903303522 0.000551041 -0.121580243 -9.837768166 -4.842685264 -1.697737904
1430533011.360266924 -4.898282857 -0.003523242 -0.122176486 -9.800837546 -4.723161888 -1.965355192
1430533011.370266914 -4.898161758 -0.000709259 -0.124117015 -9.797200934 -4.676527635 -2.163340543
1430533011.380266905 -4.896951726 -0.003715247 -0.124166571 -9.819744219 -4.576833224 -2.433818228
1430533011.390266895 -4.896932360 -0.001139592 -0.121038992 -9.789641674 -4.485853848 -2.652374297
1430533011.400266886 -5.634462214 0.332791090 0.290208721 -10.513351554 -4.323832662 -2.913967623
1430533011.410266876 -5.637442869 0.332388902 0.291733111 -10.527446190 -4.107753691 -3.158746371
1430533011.420266867 -5.636029912 0.331075293 0.292041058 -10.565418974 -3.916063882 -3.458073409
1430533011.430266857 -5.637551988 0.331555623 0.290641009 -10.547832548 -3.657493757 -3.710145937
1430533011.440266848 -5.637867843 0.332930980 0.293978018 -10.527006033 -3.425048466 -3.927106521
1430533011.450266838 -5.636395471 0.330042716 0.291311685 -10.534858760 -3.181620404 -4.146411090
1430533011.460266829 -5.637725968 0.331429415 0.293214873 -10.539127900 -2.885960372 -4.383471079
1430533011.470266819 -5.638350153 0.332582688 0.293680111 -10.530399844 -2.615641668 -4.578996830
1430533011.480266809 -5.633488824 0.335157558 0.289875155 -10.496051612 -2.350901870 -4.749548271
1430533011.490266800 -5.637447898 0.331631079 0.292105275 -10.485376707 -2.051401272 -4.903383400
1430533011.500266790 -5.636934849 0.330773517 0.293768366 -10.487172457 -1.725681122 -5.046868993
1430533011.510266781 -5.182976187 0.039041446 0.533164038 -9.372930246 -0.376717815 -4.400157304
1430533011.520266771 -5.184059837 0.041050166 0.532573865 -9.383898698 -0.095481072 -4.448382941
1430533011.530266762 -5.182834406 0.041294250 0.538055863 -9.405391662 0.223378147 -4.435696231
1430533011.540266752 -5.184797271 0.040997696 0.534241515 -9.401894852 0.495297845 -4.412132993
1430533011.550266743 -5.184282964 0.040770588 0.534568160 -9.384209741 0.779993848 -4.379818361
1430533011.560266733 -5.182404158 0.043211348 0.535229826 -9.397604210 1.055969635 -4.360104471
1430533011.570266724 -5.184926389 0.039545511 0.532036874 -9.357317068 1.291932341 -4.313320040
1430533011.580266714 -5.184884610 0.041258853 0.532122189 -9.343484417 1.575289514 -4.228081772
1430533011.590266705 -5.184038327 0.037615235 0.534937842 -9.339157096 1.857283197 -4.169563461
1430533011.600266695 -5.183397228 0.040600311 0.532904001 -9.310734342 2.127632877 -4.098466577
1430533011.610266685 -5.179567666 0.042112158 0.534724010 -9.320348043 2.379040328 -3.969289600
1430533011.620266676 -4.649809505 0.041604894 0.361680468 -10.046676831 1.121687726 -4.558823260
1430533011.630266666 -4.651948214 0.046831084 0.362351512 -10.049310992 1.379980139 -4.519520136
1430533011.640266657 -4.651429946 0.044621349 0.356392569 -10.031220994 1.615387744 -4.435193762
1430533011.650266647 -4.648024589 0.044799565 0.362517155 -10.044612515 1.825290117 -4.369330927
1430533011.660266638 -4.651332709 0.044078237 0.358290762 -10.001475282 2.073714868 -4.311318996
1430533011.670266628 -4.649889933 0.046926401 0.363393835 -10.031861739 2.302503836 -4.190247677
1430533011.680266619 -4.652194040 0.045924307 0.361548612 -9.968905839 2.554230551 -4.102762466
1430533011.690266609 -4.647314532 0.042558684 0.357823098 -9.973853126 2.761609200 -3.971800139
1430533011.700266600 -4.651537347 0.047269017 0.359931465 -9.950537150 3.019930612 -3.851741338
1430533011.710266590 -4.582545753 -0.452738031 0.557987123 -9.303801785 3.373496860 -4.914475294
1430533011.720266581 -4.582967730 -0.449822946 0.555803712 -9.295792682 3.631970738 -4.719572094
1430533011.730266571 -4.586722228 -0.449285003 0.554866419 -9.345730222 3.872012814 -4.512813642
1430533011.740266562 -4.584613686 -0.449357821 0.557423638 -9.272049094 4.180381189 -4.273598423
1430533011.750266552 -4.580725099 -0.452351576 0.559560993 -9.295595206 4.425982626 -4.072628987
1430533011.760266542 -4.583675133 -0.450579993 0.558153568 -9.324935815 4.665517170 -3.826479415
1430533011.770266533 -4.583607717 -0.451932988 0.557889087 -9.288666282 4.817941027 -3.511821161
1430533011.780266523 -4.581316894 -0.451725859 0.559806480 -9.271038601 5.056498264 -3.329248945
1430533011.790266514 -4.582652868 -0.450204219 0.555843807 -9.278633014 5.233751262 -3.010626063
1430533011.800266504 -4.583066122 -0.453807424 0.558614171 -9.254914019 5.448191240 -2.727880606
1430533011.810266495 -4.047771853 -1.219626666 0.035657332 -8.058791910 6.079298397 -1.766922258
1430533011.820266485 -4.050678786 -1.223510179 0.035061441 -8.075247748 6.130004989 -1.472781360
1430533011.830266476 -4.049428188 -1.221844712 0.032774098 -8.078008168 6.224748674 -1.118432034
1430533011.840266466 -4.048877429 -1.217677154 0.034357341 -8.069690758 6.233995275 -0.723480967
1430533011.850266457 -4.047791278 -1.222584019 0.033023494 -8.140778534 6.294771512 -0.411344177
1430533011.860266447 -4.047303248 -1.221339225 0.031544724 -8.099215143 6.251499338 -0.034073842
1430533011.870266438 -4.049615379 -1.219722438 0.035424675 -8.080525088 6.244944887 0.287161242
1430533011.880266428 -4.046227002 -1.222887642 0.032669295 -8.100993833 6.237639101 0.670728247
1430533011.890266418 -4.048586510 -1.219662750 0.036117359 -8.039839455 6.181163909 0.996014582
1430533011.900266409 -4.047119448 -1.219082959 0.034117224 -8.070493656 6.174822031 1.351986607
1430533011.910266399 -3.617204648 -0.998165906 -1.079343569 -7.066173233 5.452660185 1.959341448
1430533011.920266390 -3.617464503 -0.996958390 -1.076314663 -7.139088462 5.303968981 2.264458229
1430533011.930266380 -3.621953435 -0.997682870 -1.074234757 -7.115928324 5.129761112 2.531493748
1430533011.940266371 -3.617723953 -0.996423663 -1.076940709 -7.161515821 5.023314550 2.766757559
1430533011.950266361 -3.616563252 -0.998913059 -1.079560546 -7.226550400 4.813846336 3.012207084
1430533011.960266352 -3.619697154 -0.997941048 -1.076614260 -7.206879917 4.590233602 3.268402429
1430533011.970266342 -3.617124560 -0.995491327 -1.078807017 -7.182084281 4.364484852 3.465639561
1430533011.980266333 -3.619307264 -0.998581126 -1.078500551 -7.227588308 4.148212142 3.716789611
1430533011.990266323 -3.620055413 -0.996580652 -1.075509208 -7.256977698 3.972385258 3.921654609
